acc_x, acc_y, angular_z, stamp, 
-0.0002490878105163574, -0.012943089008331299, -1.259609232308117e-09, 1791228372591156019
-0.021869897842407227, 0.008703291416168213, -1.2598899822781658e-09, 1791228372621691275
-0.0037404894828796387, -0.007607161998748779, -1.0492068159680252e-09, 1791228372654216699
-0.007245659828186035, 0.010218501091003418, -1.1350173334449473e-09, 1791228372681395320
-0.030868470668792725, 0.0009506940841674805, -1.1562570229188001e-09, 1791228372741415635
-0.014592885971069336, -0.007945537567138672, -1.011945625113069e-09, 1791228372771482511
0.032189249992370605, 0.022458255290985107, -8.44933210983263e-10, 1791228372801513026
-0.00018286705017089844, 0.0005919337272644043, -1.980523962427633e-06, 1791228372831621746
-0.01996016502380371, -0.0262487530708313, -1.9834587458292837e-06, 1791228372861686253
-0.007329463958740234, 0.004474461078643799, -6.911747055724196e-10, 1791228372893720954
0.010808944702148438, 0.033286452293395996, -6.399645967040019e-10, 1791228372920977426
0.005390763282775879, -0.015485525131225586, -5.474870165713776e-10, 1791228372951812124
0.010660231113433838, -0.004879415035247803, -5.977428129333849e-10, 1791228372981789754
-0.03243875503540039, -0.0030556917190551758, -6.111633124826163e-10, 1791228373011820971
-0.008761703968048096, 0.007704734802246094, -4.2404211588559614e-10, 1791228373041920832
-0.02276933193206787, 0.01974785327911377, -1.1272658848007716e-10, 1791228373164234436
-0.01175689697265625, 0.008880555629730225, 4.571835001677758e-11, 1791228373192102352
0.024236202239990234, 0.0006706714630126953, -0.0008697803259396749, 1791228373222186363
0.7410295009613037, -0.041103243827819824, -0.014997713214385004, 1791228373252220111
1.5802204608917236, -0.3966488242149353, -0.11299350985129274, 1791228373282270455
0.6508539915084839, -0.001610100269317627, -0.19346739823660364, 1791228373312464828
0.8150774836540222, 0.14972800016403198, -0.2013200839602987, 1791228373342362190
0.5135544538497925, -0.5017492175102234, -0.2276604355811224, 1791228373374171070
-0.002060830593109131, 0.06065112352371216, -0.29923809336513835, 1791228373405533626
-0.36347633600234985, 0.06387335062026978, -0.31353870120435645, 1791228373432499156
0.07385367155075073, -0.08786892890930176, -0.28218496137677695, 1791228373462588122
-0.03260082006454468, -0.07819873094558716, -0.3212028481454195, 1791228373492579760
0.08933001756668091, -0.11416709423065186, -0.30169029026871536, 1791228373522647784
0.15411168336868286, 0.15369409322738647, -0.29218090085848025, 1791228373552665887
-0.27518945932388306, -0.0730317234992981, -0.310500591631459, 1791228373582855867
-0.07561904191970825, -0.07982110977172852, -0.2995148586409929, 1791228373614171327
0.09566402435302734, 0.1682031750679016, -0.2994981977175897, 1791228373644984141
0.3373911380767822, 0.24777483940124512, -0.2920955712399534, 1791228373731982333
-0.07559072971343994, -0.0912473201751709, -0.3077186733444213, 1791228373763091937
0.021627485752105713, 0.13212376832962036, -0.3419268164280016, 1791228373793426060
-0.17948460578918457, -0.21718353033065796, -0.30184289351951543, 1791228373823534217
0.13773804903030396, -0.12033802270889282, -0.2620781601841544, 1791228373853760573
0.10174155235290527, 0.19672131538391113, -0.25196676796367096, 1791228373886027313
0.05295288562774658, -0.18851768970489502, -0.315335621495626, 1791228373913341785
-0.08478385210037231, -0.16744160652160645, -0.3121186012322577, 1791228373943355541
0.16498279571533203, 0.20153790712356567, -0.30523765034181505, 1791228373973399801
0.13379549980163574, -0.06354957818984985, -0.3067232197823095, 1791228374003455119
0.20966893434524536, -0.19873064756393433, -0.3037709614007212, 1791228374033479543
-0.30833756923675537, 0.13890445232391357, -0.2808350852249003, 1791228374063524610
0.2459338903427124, 0.04568248987197876, -0.29689760379488467, 1791228374093784541
-0.11551016569137573, -0.0987582802772522, -0.2920830694261085, 1791228374126401093
-0.2283143401145935, 0.016304194927215576, -0.3486379737692471, 1791228374153751982
0.25240063667297363, -0.17747682332992554, -0.30169743426731543, 1791228374183707877
0.19100111722946167, -0.004850625991821289, -0.2825799237906158, 1791228374213773946
-0.10413515567779541, -0.01667243242263794, -0.28347083494829334, 1791228374243842356
-0.10480576753616333, -0.08006846904754639, -0.27725102438812765, 1791228374273872052
0.020925462245941162, 0.1441628336906433, -0.3095176535218066, 1791228374303932407
-0.18377745151519775, -0.22274136543273926, -0.34857272003178164, 1791228374332983954
0.28405308723449707, -0.10364335775375366, -0.2728413045554591, 1791228374366384765
0.11339455842971802, 0.23046350479125977, -0.2797727241980635, 1791228374396637058
-0.07361817359924316, -0.23361343145370483, -0.3133869539120749, 1791228374424153490
-0.06436282396316528, -0.18857401609420776, -0.28774951295148504, 1791228374454211413
0.0423426628112793, 0.3400331139564514, -0.3116921894210554, 1791228374484199356
0.018879592418670654, -0.08108323812484741, -0.3215326866642932, 1791228374514260079
-0.021940648555755615, -0.22810983657836914, -0.2783306556299993, 1791228374544319198
0.06713950634002686, 0.12771517038345337, -0.28140568850362463, 1791228374574725994
-0.20283865928649902, -0.1520271897315979, -0.2874796524050934, 1791228374606102859
0.16024768352508545, 0.02267444133758545, -0.2822731586888357, 1791228374638217905
-0.335277259349823, 0.08925879001617432, -0.3697234803091631, 1791228374664524855
0.15496039390563965, -0.0791015625, -0.31575647165171045, 1791228374694527852
-0.028283774852752686, 0.03683966398239136, -0.28820885352892583, 1791228374724575580
-0.14901137351989746, -0.10118556022644043, -0.2985698440365091, 1791228374754665765
-0.019348502159118652, -0.04773789644241333, -0.29405882278246326, 1791228374784698039
0.0298464298248291, 0.13246893882751465, -0.2908054812011069, 1791228374814771979
0.14118152856826782, -0.09903651475906372, -0.29796864915945204, 1791228374846048197
0.07283055782318115, -0.2104390263557434, -0.27560315012081493, 1791228374877860596
0.06673479080200195, 0.12543845176696777, -0.3050668411875869, 1791228374905119805
-0.10423421859741211, -0.028791189193725586, -0.2936192353057225, 1791228374934926265
-0.22681182622909546, -0.024343550205230713, -0.29326708372567, 1791228374964006445
0.043285250663757324, 0.05867511034011841, -0.2903040152650842, 1791228374995031826
-0.02648484706878662, -0.14986854791641235, -0.3087193256996318, 1791228375025067832
0.050940632820129395, 0.07092106342315674, -0.3032938490610931, 1791228375054157845
0.003022313117980957, -0.11317580938339233, -0.26905395680690214, 1791228375086478133
-0.04054147005081177, -0.1311470866203308, -0.28083446350688546, 1791228375117929590
-0.04100513458251953, 0.17101818323135376, -0.30466322864624135, 1791228375145332615
-0.2469218373298645, 0.06828725337982178, -0.30022533567665033, 1791228375175399561
0.007310807704925537, -0.15810495615005493, -0.30021888613462533, 1791228375205450057
0.14269912242889404, 0.10337746143341064, -0.2744945067402475, 1791228375226139819
0.5655214190483093, -0.21569299697875977, -0.29477765116062116, 1791228375255601918
-0.4193452000617981, -0.18646240234375, -0.29881461460316777, 1791228375285492239
0.09510135650634766, 0.32139497995376587, -0.29073976076193203, 1791228375315592200
-0.1546497941017151, -0.047724127769470215, -0.3102028119659239, 1791228375345633908
0.16617733240127563, -0.1936984658241272, -0.31094703862387085, 1791228375375656209
-0.05669426918029785, 0.06658589839935303, -0.27760790777415656, 1791228375406914312
0.05907481908798218, -0.019480645656585693, -0.29095027335769663, 1791228375437939898
-0.04004228115081787, -0.13191401958465576, -0.3176692431064955, 1791228375467857107
-0.021657228469848633, -0.07726562023162842, -0.343568889576702, 1791228375495875052
-0.14454710483551025, -0.07718253135681152, -0.2975149273339226, 1791228375525896640
0.1816735863685608, 0.081673264503479, -0.27641807769820714, 1791228375555952834
-0.12849271297454834, -0.12121546268463135, -0.2783979507252615, 1791228375585966263
0.0489690899848938, -0.18229687213897705, -0.28033726964086025, 1791228375616030196
0.0030089616775512695, 0.22664183378219604, -0.2850913061811491, 1791228375646075879
-0.0298958420753479, -0.07321172952651978, -0.2909412577191926, 1791228375677326101
0.11724323034286499, -0.1924787163734436, -0.3067417204681422, 1791228375707603406
0.20921212434768677, 0.10983967781066895, -0.3179605541230351, 1791228375736294503
-0.06609302759170532, -0.12014490365982056, -0.31076332131794127, 1791228375766286039
0.03382986783981323, -0.2174849510192871, -0.2854809458224724, 1791228375796346894
-0.12126791477203369, 0.335191547870636, -0.28309684897522847, 1791228375826433830
-0.1562204360961914, 0.07284069061279297, -0.3140291667843613, 1791228375856468563
0.17667490243911743, -0.1801382303237915, -0.3097451106601762, 1791228375886554326
0.15175944566726685, 0.010055005550384521, -0.28430734864640556, 1791228375918382096
-0.15433305501937866, -0.051132798194885254, -0.27934678891034537, 1791228375949766864
-0.039275169372558594, -0.00034332275390625, -0.3146441164002426, 1791228375976715951
0.15156131982803345, 0.0004991292953491211, -0.3182917737108771, 1791228376006668656
-0.08747309446334839, -0.15060091018676758, -0.32100583753693623, 1791228376036713278
-0.03422260284423828, 0.18690526485443115, -0.2976906552030566, 1791228376066735718
-0.03795039653778076, -0.1010284423828125, -0.2974099626977513, 1791228376096817109
-0.06431061029434204, -0.21037650108337402, -0.27944687477285746, 1791228376126915425
0.2830108404159546, 0.15366429090499878, -0.26342636731824415, 1791228376158220669
-0.07371199131011963, -0.08216339349746704, -0.29329491109228883, 1791228376190140718
-0.21139943599700928, -0.051661133766174316, -0.3607305645472131, 1791228376217050869
-0.1376994252204895, 0.28319883346557617, -0.3118532884620177, 1791228376247100830
-0.006883978843688965, -0.08604037761688232, -0.3052395507181235, 1791228376277144906
0.06838643550872803, -0.16877293586730957, -0.28962282364554964, 1791228376307145510
-0.16898995637893677, 0.17564725875854492, -0.2770862989079054, 1791228376337250490
0.13355755805969238, -0.0031804442405700684, -0.29708311093854484, 1791228376367264005
0.1052861213684082, -0.07359212636947632, -0.3027335123086639, 1791228376398293164
0.257618248462677, -0.04922360181808472, -0.288826792014309, 1791228376430466223
-0.12653666734695435, -0.07035225629806519, -0.3222148997520127, 1791228376457510710
-0.1043921709060669, 0.10765504837036133, -0.2721579145751535, 1791228376487462357
0.0611187219619751, -0.019872546195983887, -0.2790924853548557, 1791228376517590993
-0.20150434970855713, -0.07508862018585205, -0.3223175893089851, 1791228376547544862
0.03857553005218506, 0.09331923723220825, -0.33898549797681093, 1791228376577709795
0.25401562452316284, -0.2188655138015747, -0.30548679798482414, 1791228376607697303
0.09593689441680908, 0.1283637285232544, -0.2719595485347161, 1791228376638690565
-0.10789787769317627, 0.01853710412979126, -0.26615559747218553, 1791228376669895937
0.07340222597122192, -0.12682276964187622, -0.31023522366866396, 1791228376697811296
-0.02699655294418335, 0.0951387882232666, -0.29663652627242676, 1791228376728420222
0.23526263236999512, -0.06207972764968872, -0.30256621423171337, 1791228376758450652
0.1151004433631897, -0.19905394315719604, -0.2948557339238629, 1791228376788483479
-0.16211795806884766, 0.13176530599594116, -0.28464167357729775, 1791228376818478970
0.10671573877334595, -0.1500987410545349, -0.27625778417893154, 1791228376848548430
-0.21760523319244385, -0.01864391565322876, -0.28331560189234095, 1791228376878561065
0.14233750104904175, 0.22204917669296265, -0.2922516050371472, 1791228376910026724
-0.08525127172470093, -0.14835089445114136, -0.3203229473085863, 1791228376940708415
0.17214447259902954, -0.12338876724243164, -0.3169384752613338, 1791228376968691831
-0.15394854545593262, 0.23815232515335083, -0.28015283381402534, 1791228376998566010
-0.1197769045829773, -0.032490551471710205, -0.28770090793667136, 1791228377028574676
0.05463063716888428, -0.06406861543655396, -0.29115598667853493, 1791228377058604898
0.12931585311889648, 0.05885148048400879, -0.3114615285431215, 1791228377088661690
0.08268409967422485, -0.07485067844390869, -0.3228382041739521, 1791228377118720426
-0.01774042844772339, 0.0029419660568237305, -0.2839966385621635, 1791228377149870590
-0.017231404781341553, 0.07110810279846191, -0.2769501525705058, 1791228377181965253
-0.18251359462738037, -0.10346192121505737, -0.3279683366786739, 1791228377208947401
-0.02734893560409546, 0.10436195135116577, -0.2903270685508596, 1791228377238790411
0.043067753314971924, -0.0784597396850586, -0.3049951530306452, 1791228377268874135
-0.08025258779525757, -0.1104440689086914, -0.30519841150979377, 1791228377298807215
-0.006973683834075928, 0.14461815357208252, -0.2863302444550063, 1791228377328871224
-0.1514056921005249, -0.060912251472473145, -0.301290264698955, 1791228377358856882
-0.15802216529846191, -0.05057579278945923, -0.2765408901029993, 1791228377390546504
0.04055953025817871, 0.18169742822647095, -0.28746840145349456, 1791228377421025482
0.10664987564086914, 0.01491236686706543, -0.34999062100206274, 1791228377449138327
-0.08237814903259277, -0.24159914255142212, -0.30605469905333155, 1791228377479119838
-0.03308558464050293, 0.12601947784423828, -0.2874494445411232, 1791228377509188568
0.34289735555648804, 0.046623945236206055, -0.2966622117823049, 1791228377539208174
-0.26446717977523804, -0.02348923683166504, -0.29981996132495126, 1791228377569216092
-0.27542704343795776, 0.09021174907684326, -0.31919733527697325, 1791228377599292081
-0.025639235973358154, -0.10715895891189575, -0.29811458221420345, 1791228377629909664
0.14953488111495972, 0.09029769897460938, -0.27067989209624355, 1791228377661950325
-0.09570688009262085, -0.1772974133491516, -0.3183585347661656, 1791228377689488197
0.006847500801086426, 0.01644200086593628, -0.2988953178381819, 1791228377719475945
0.11627566814422607, 0.18695992231369019, -0.3000256210116083, 1791228377749525429
-0.006427168846130371, -0.21183651685714722, -0.3184560752186324, 1791228377779569442
-0.08189654350280762, -0.13442373275756836, -0.30145715598296474, 1791228377809620035
0.29249072074890137, 0.3229619860649109, -0.28375326651151866, 1791228377839676772
-0.2172539234161377, -0.24181902408599854, -0.29389560798841874, 1791228377870137699
0.27176547050476074, -0.10609292984008789, -0.274914040626845, 1791228377902437267
-0.11940521001815796, 0.2293999195098877, -0.32363095960844807, 1791228377929903705
-0.011606991291046143, -0.12472265958786011, -0.31168808534707154, 1791228377959857161
0.14210331439971924, -0.03878521919250488, -0.3150425551746645, 1791228377988995526
-0.05738884210586548, 0.06391388177871704, -0.2838863348379755, 1791228378020104047
0.04302483797073364, -0.04179096221923828, -0.29558610506694855, 1791228378050162724
0.06907522678375244, 0.47182589769363403, -0.29290933937473557, 1791228378080181950
-0.1648312211036682, -0.2264682650566101, -0.31227179703254665, 1791228378110081235
-0.007078230381011963, -0.21523380279541016, -0.2901336234981803, 1791228378141961325
0.07237893342971802, 0.1881955862045288, -0.28570493271645653, 1791228378172241812
-0.16601788997650146, -0.04894053936004639, -0.3247422020318052, 1791228378200202720
-0.20532077550888062, -0.001314699649810791, -0.3238711495922272, 1791228378229301192
0.1309834122657776, -0.014013290405273438, -0.28302834496000356, 1791228378260330450
0.22533833980560303, 0.009154736995697021, -0.2943837937039328, 1791228378290422560
0.0018245577812194824, 0.020641088485717773, -0.29050575628625763, 1791228378320441874
-0.2679935693740845, -0.01055055856704712, -0.31105483741356693, 1791228378350584983
-0.19000542163848877, -0.22648870944976807, -0.30259979303620255, 1791228378381013873
-0.07719963788986206, 0.27370232343673706, -0.2629965181584255, 1791228378413923980
0.05997514724731445, -0.028762638568878174, -0.3198184142432511, 1791228378440758920
-0.008520424365997314, -0.07058167457580566, -0.2967646795376974, 1791228378470695642
0.2550317645072937, 0.16213572025299072, -0.2873152738677896, 1791228378500712427
-0.04741489887237549, -0.12469035387039185, -0.30247322124219767, 1791228378530778794
-0.11660075187683105, -0.25505000352859497, -0.28867076216818044, 1791228378560789266
0.19786107540130615, 0.33850836753845215, -0.2780492321028517, 1791228378590891269
-0.3682789206504822, -0.05405378341674805, -0.29022094613312843, 1791228378622343164
0.08017474412918091, -0.09485256671905518, -0.30070945328892107, 1791228378653935324
0.19495809078216553, -0.018202006816864014, -0.30846933900827983, 1791228378681048837
0.04026651382446289, 0.050020575523376465, -0.29373861635549936, 1791228378711076836
-0.1074259877204895, -0.028530895709991455, -0.2879315855216534, 1791228378741084128
0.10814869403839111, 0.098399817943573, -0.2960081666866508, 1791228378771165206
0.056002020835876465, -0.028476178646087646, -0.32029674442658873, 1791228378801204895
-0.08817964792251587, 0.06974935531616211, -0.30733692708269406, 1791228378831282821
-0.04625988006591797, -0.09477287530899048, -0.28465942210471523, 1791228378861690483
0.05395394563674927, -0.12034720182418823, -0.26781988427467107, 1791228378892978011
0.20559877157211304, 0.32258737087249756, -0.2921369680660604, 1791228378921463997
0.12867242097854614, -0.24888169765472412, -0.290893454487519, 1791228378951460315
0.01946866512298584, -0.03701198101043701, -0.316334739868405, 1791228378981523118
0.113106369972229, 0.20463567972183228, -0.2945099118330842, 1791228379011546344
-0.012774884700775146, -0.1510724425315857, -0.2872396178784011, 1791228379041592402
0.2799198627471924, -0.1696656346321106, -0.2914879563909063, 1791228379071641621
-0.5543003678321838, 0.14925646781921387, -0.3080097673299933, 1791228379100981591
0.12206536531448364, 0.14324164390563965, -0.3071043909001051, 1791228379132992158
-0.004541635513305664, -0.12551313638687134, -0.32223274537539714, 1791228379161876808
0.17223972082138062, 0.0351070761680603, -0.29926685006889975, 1791228379191864973
0.013445913791656494, -0.10532945394515991, -0.2734493836623524, 1791228379221869107
0.10955655574798584, 0.041317105293273926, -0.27632950690104197, 1791228379251926118
-0.3750040531158447, -0.011808514595031738, -0.2988611495738314, 1791228379282075992
-0.036701083183288574, -0.13403284549713135, -0.3060218887588689, 1791228379312059138
0.1549396514892578, 0.14649808406829834, -0.3094114194689025, 1791228379342213952
0.0643128752708435, -0.04894667863845825, -0.29115566862442305, 1791228379374426434
-0.02282249927520752, -0.12662500143051147, -0.28181632898979875, 1791228379404273864
-0.15733999013900757, 0.15509063005447388, -0.308650723810008, 1791228379432574927
-0.05294156074523926, -0.09326821565628052, -0.3230804434675044, 1791228379462488236
-0.09877574443817139, 0.006124436855316162, -0.30824363802160126, 1791228379491342779
-0.03254169225692749, 0.1510891318321228, -0.28252583417717925, 1791228379522364941
0.21150004863739014, -0.14927047491073608, -0.2857262624577904, 1791228379552405795
0.2697266936302185, 0.004155218601226807, -0.27011157394812285, 1791228379582466510
-0.22719460725784302, -0.04615771770477295, -0.2530816193372952, 1791228379615574996
-0.03258103132247925, -0.08764427900314331, -0.31698637158919907, 1791228379644007014
0.012997210025787354, 0.20145976543426514, -0.3316136895175203, 1791228379672637710
-0.0032318830490112305, -0.13905340433120728, -0.32372909522047416, 1791228379702672888
-0.11306804418563843, -0.10897421836853027, -0.29642685492708676, 1791228379732715311
0.035902976989746094, 0.2564844489097595, -0.266668084093624, 1791228379762763188
-0.22464001178741455, 0.0069446563720703125, -0.2873115998846839, 1791228379792847469
0.3523252010345459, -0.22336256504058838, -0.3076131041629567, 1791228379822909826
-0.31767112016677856, 0.15370094776153564, -0.29795738451052445, 1791228379854505503
0.13103103637695312, 0.018269717693328857, -0.2918633300132108, 1791228379886709856
-0.1458730697631836, -0.05280059576034546, -0.34532177237868555, 1791228379911990169
-0.018984615802764893, 0.0643317699432373, -0.2676671420314984, 1791228379943076084
-0.1809181571006775, -0.02029263973236084, -0.2954547910363168, 1791228379973092469
-0.054933786392211914, 0.07834941148757935, -0.3093336024680296, 1791228380003224632
0.09992390871047974, -0.08763927221298218, -0.3250215914463846, 1791228380033200682
0.2533079981803894, -0.1611616015434265, -0.3263456530050081, 1791228380063247275
0.003982484340667725, 0.12022566795349121, -0.28075404557977923, 1791228380094172763
0.10391968488693237, -0.07156199216842651, -0.26352550114178824, 1791228380126177890
-0.26435667276382446, -0.04085040092468262, -0.3127402449771079, 1791228380153448482
-0.08169877529144287, 0.2210085391998291, -0.3019133884493753, 1791228380183426090
-0.16767174005508423, -0.08937197923660278, -0.3189557771685361, 1791228380213493348
0.10429489612579346, -0.20783472061157227, -0.30266722962362064, 1791228380243583549
0.1102595329284668, 0.1490699052810669, -0.2783048801643276, 1791228380273598552
0.06644630432128906, -0.037111103534698486, -0.2707585057545848, 1791228380303682728
-0.1362837553024292, 0.03737300634384155, -0.27344111067793775, 1791228380334524298
-0.12612491846084595, 0.026753246784210205, -0.2893401579918121, 1791228380366257966
0.0142289400100708, -0.10701680183410645, -0.33390170097230354, 1791228380393899945
0.14629685878753662, 0.043723106384277344, -0.2911674250347111, 1791228380423867856
0.07833409309387207, 0.06810003519058228, -0.29457549129779187, 1791228380453921006
-0.013528406620025635, -0.13802707195281982, -0.31228619734447965, 1791228380482994800
-0.1401810646057129, 0.09046143293380737, -0.30760968210649176, 1791228380513010294
0.013926327228546143, -0.11738282442092896, -0.2957958947217277, 1791228380544048967
-0.05759871006011963, -0.1446334719657898, -0.2823104388207815, 1791228380574087143
0.2421305775642395, 0.18634432554244995, -0.2627652590691658, 1791228380606228786
-0.27795714139938354, -0.13303840160369873, -0.2810669208394077, 1791228380636360806
0.21378600597381592, -0.08945691585540771, -0.2872672727014165, 1791228380664204717
-0.02560865879058838, 0.22644495964050293, -0.28903925720520424, 1791228380694295210
0.17256659269332886, -0.07210427522659302, -0.3238212602375485, 1791228380724309786
0.15643757581710815, -0.2300722599029541, -0.31730239098202256, 1791228380753446658
0.0005563497543334961, 0.24348461627960205, -0.29772822218302697, 1791228380784428141
-0.3634883165359497, 0.04052382707595825, -0.30069531184674025, 1791228380814570784
0.09388625621795654, 0.21572595834732056, -0.2589231462495397, 1791228380846704274
0.11599785089492798, -0.09709161520004272, -0.31759034516759854, 1791228380876500702
-0.3344682455062866, -0.2567101716995239, -0.34902147665665295, 1791228380904812036
0.3510250449180603, 0.22134840488433838, -0.29435202421173423, 1791228380934687564
-0.02163320779800415, -0.04523128271102905, -0.256600987249957, 1791228380957092914
-0.2378702163696289, -0.03057539463043213, -0.32073125173247424, 1791228380984840710
-0.101401686668396, 0.15392303466796875, -0.29438257163813036, 1791228381014779720
-0.293596088886261, -0.1848934292793274, -0.31888882704588883, 1791228381044840560
0.11922723054885864, -0.04008454084396362, -0.3063589216545533, 1791228381074883595
-0.006659328937530518, 0.30128371715545654, -0.28656023345017634, 1791228381105142948
-0.024572372436523438, -0.24634712934494019, -0.31231263474995374, 1791228381133979414
0.02792876958847046, -0.21849656105041504, -0.27446195123562395, 1791228381165982214
-0.04640406370162964, 0.35903507471084595, -0.2581959248504792, 1791228381198558527
-0.03222471475601196, -0.06230723857879639, -0.34498238942776005, 1791228381225175152
-0.07613766193389893, -0.17143088579177856, -0.3087422558398775, 1791228381255203766
-0.05287277698516846, 0.11711663007736206, -0.28770888768246766, 1791228381285270054
-0.33183181285858154, -0.037126898765563965, -0.2899707892886517, 1791228381315300306
0.36570489406585693, 0.06672930717468262, -0.2927456963511742, 1791228381345367636
-0.3263353109359741, 0.07366049289703369, -0.3008374115684264, 1791228381375425176
-0.06456893682479858, -0.07842212915420532, -0.2926584320453912, 1791228381406235911
0.019181013107299805, 0.024942219257354736, -0.26505627550056093, 1791228381438229740
0.03732573986053467, -0.1435791254043579, -0.30700247344123804, 1791228381465645426
-0.31883978843688965, -0.10219711065292358, -0.2870947606531322, 1791228381495577100
-0.07616525888442993, 0.22748547792434692, -0.2856881273784995, 1791228381525619418
0.14855360984802246, -0.16062992811203003, -0.30994155444410104, 1791228381555668474
0.1263146996498108, -0.10153108835220337, -0.33208522301985033, 1791228381585760994
0.11296308040618896, 0.19337332248687744, -0.3164084096851173, 1791228381615787584
0.15247005224227905, -0.10178583860397339, -0.2843509224634018, 1791228381646774477
-0.3411875367164612, -0.08504068851470947, -0.26766766514616047, 1791228381678935128
-0.13342350721359253, 0.12037795782089233, -0.3272043392256631, 1791228381705974912
-0.20747846364974976, -0.026808321475982666, -0.30961111545231057, 1791228381735953341
0.1190112829208374, 0.07825654745101929, -0.3220659921444225, 1791228381765019350
0.23687118291854858, -0.07178068161010742, -0.3026892516931314, 1791228381796090002
0.1854466199874878, -0.2214134931564331, -0.2871638970543475, 1791228381826124595
0.06882107257843018, 0.22979849576950073, -0.2875553664369593, 1791228381856229888
-0.15005236864089966, -0.036528706550598145, -0.302060584084901, 1791228381886592678
-0.10317105054855347, -0.13991791009902954, -0.2955865475011853, 1791228381918213555
0.03752356767654419, 0.17232388257980347, -0.30658762492788433, 1791228381948713550
-0.009028077125549316, -0.10206067562103271, -0.3341581812890437, 1791228381976366180
-0.030877411365509033, -0.1876453161239624, -0.2787202621981428, 1791228382006405114
0.049268901348114014, 0.21630507707595825, -0.27270217468411223, 1791228382036437029
0.020272433757781982, -0.03179198503494263, -0.2977774895360927, 1791228382066479563
-0.06905466318130493, -0.127261221408844, -0.30399961677430787, 1791228382096507867
0.19957590103149414, 0.003932774066925049, -0.3017324707915116, 1791228382126749265
-0.18165570497512817, -0.07940399646759033, -0.30579866771161335, 1791228382158290621
-0.0031756162643432617, 0.055198073387145996, -0.29474019487029207, 1791228382190051294
-0.21987992525100708, 0.04219222068786621, -0.33324138008311566, 1791228382216881702
0.11139988899230957, -0.10879015922546387, -0.28803306578662446, 1791228382246857602
0.16988754272460938, 0.13447296619415283, -0.2800100518343344, 1791228382276974209
0.09248518943786621, -0.12733310461044312, -0.29313382313303854, 1791228382306956597
0.028355181217193604, -0.05758309364318848, -0.30009165958095985, 1791228382336947746
0.058010220527648926, 0.06375914812088013, -0.2907336497695586, 1791228382366010040
0.14595496654510498, 0.07709872722625732, -0.2795169258537569, 1791228382398217446
-0.2903287410736084, 0.006840050220489502, -0.2833959528700575, 1791228382430521889
0.2677481770515442, -0.013821601867675781, -0.34313357054325744, 1791228382457155068
-0.024557411670684814, -0.16684305667877197, -0.30848103016133754, 1791228382487198242
-0.003012359142303467, 0.07704836130142212, -0.28612501453044076, 1791228382517216991
-0.10655349493026733, -0.00876849889755249, -0.2821248145816735, 1791228382547260419
0.022069990634918213, -0.051738619804382324, -0.3048700822558183, 1791228382577390164
0.09003221988677979, 0.15156084299087524, -0.30962180172581977, 1791228382607370088
0.1038244366645813, -0.21454668045043945, -0.2783401284382583, 1791228382639152639
0.16570669412612915, -0.07511574029922485, -0.2832334192390687, 1791228382670170186
0.07609498500823975, 0.28537023067474365, -0.3312865616462037, 1791228382696506358
-0.1573391556739807, -0.1836879849433899, -0.28614644128228156, 1791228382727576541
-0.024905085563659668, -0.19039714336395264, -0.28308347554410696, 1791228382757913021
-0.22535890340805054, 0.3676950931549072, -0.30222194471012015, 1791228382787726082
0.12674391269683838, -0.20384615659713745, -0.30141589743638136, 1791228382817782185
0.10543429851531982, -0.2543240189552307, -0.285165968067379, 1791228382847962793
0.17748111486434937, 0.24640703201293945, -0.29889548742671657, 1791228382878762404
-0.3487092852592468, -0.04243326187133789, -0.2774577005200116, 1791228382910434411
0.36336618661880493, 0.10988402366638184, -0.3410563059847738, 1791228382936984164
-0.3516210913658142, -0.17768704891204834, -0.2991215255252311, 1791228382967959925
0.244395911693573, -0.23620092868804932, -0.3047696274251585, 1791228382997004424
0.02810955047607422, 0.1874571442604065, -0.26627749474086965, 1791228383028758643
-0.2961655259132385, -0.0303952693939209, -0.2956316723018031, 1791228383058787932
-0.3992893695831299, -0.044583261013031006, -0.29112387614635077, 1791228383088736061
0.11635464429855347, 0.1411786675453186, -0.2981195629164015, 1791228383118836815
0.08526730537414551, -0.10317486524581909, -0.29808225087097306, 1791228383150652023
0.018844962120056152, -0.23803657293319702, -0.2804999977091714, 1791228383180377094
0.10098934173583984, 0.17932146787643433, -0.28935654859738624, 1791228383208849789
-0.18341565132141113, -0.09154051542282104, -0.29883702059432576, 1791228383238874340
-0.15832608938217163, -0.08357638120651245, -0.2938730627295648, 1791228383268932630
-0.05817502737045288, 0.145585834980011, -0.30502330205373074, 1791228383298872342
-0.18909841775894165, 0.04692190885543823, -0.31360487619025207, 1791228383328854636
0.14820873737335205, -0.07550138235092163, -0.28696281193459416, 1791228383358951486
-0.07677072286605835, -0.06713390350341797, -0.279773408152841, 1791228383390154753
-0.15841412544250488, -0.1081894040107727, -0.27461082023622674, 1791228383421727118
-0.08451175689697266, 0.1606925129890442, -0.3234305584461282, 1791228383448129133
-0.07866454124450684, -0.06308561563491821, -0.31192830303425434, 1791228383479161013
0.062289535999298096, -0.233753502368927, -0.3176470351040657, 1791228383509120836
-0.1247590184211731, 0.24243348836898804, -0.2834884804987504, 1791228383539123398
-0.05883133411407471, -0.15261059999465942, -0.2825914881660661, 1791228383569225751
-0.33457082509994507, -0.21854686737060547, -0.2880946469796302, 1791228383599217672
0.2503000497817993, 0.28029805421829224, -0.2848911463866712, 1791228383630286336
-0.32353663444519043, -0.05372059345245361, -0.2997777044841153, 1791228383663164207
0.5207905173301697, 0.03960692882537842, -0.3549852850579278, 1791228383689494349
-0.05673271417617798, -0.15161991119384766, -0.28709674387823814, 1791228383719418858
0.13417714834213257, -0.10412096977233887, -0.2794073238975402, 1791228383749393436
-0.03268909454345703, 0.1864064335823059, -0.28547662073472047, 1791228383779382342
-0.14920580387115479, -0.07619202136993408, -0.30219252608005404, 1791228383809361223
-0.409440815448761, -0.14253461360931396, -0.32204523024783216, 1791228383839417002
0.009067237377166748, 0.11530756950378418, -0.30998400289330574, 1791228383870263667
-0.09432542324066162, -0.17039614915847778, -0.2676322968134301, 1791228383902585120
0.17011159658432007, -0.11499655246734619, -0.30226539157199744, 1791228383929605755
-0.26729005575180054, 0.37596946954727173, -0.2875272194143182, 1791228383959579039
-0.17983615398406982, -0.14856576919555664, -0.2983268565101316, 1791228383989641698
0.6159684062004089, -0.11214625835418701, -0.3066339404466969, 1791228384019652934
-0.1696939468383789, 0.06283921003341675, -0.3004531272942116, 1791228384049728122
-0.5305364727973938, -0.11892914772033691, -0.28585105656369425, 1791228384079763713
0.2022344470024109, 0.003616809844970703, -0.2424275541817999, 1791228384111224407
-0.42385077476501465, 0.1978357434272766, -0.2979884741631033, 1791228384142018607
0.006610512733459473, -0.19728517532348633, -0.360723627891596, 1791228384170047409
0.10335022211074829, -0.0275346040725708, -0.3154481023308122, 1791228384199975437
0.013819694519042969, 0.017434298992156982, -0.299600277091221, 1791228384230037846
-0.10417956113815308, -0.14090222120285034, -0.2785542591486173, 1791228384260085875
-0.15704721212387085, 0.20059198141098022, -0.2765153554492493, 1791228384290154159
-0.2266148328781128, -0.08775484561920166, -0.3045526692496259, 1791228384320601061
-0.1324782371520996, -0.2127920389175415, -0.31313444933183704, 1791228384350374830
0.3706251382827759, 0.28668326139450073, -0.2897187243794608, 1791228384382329313
-0.12052583694458008, -0.11434805393218994, -0.30768099963700046, 1791228384412532707
0.24339789152145386, 0.041562676429748535, -0.29510190071241466, 1791228384450396113
-0.20773577690124512, -0.03526628017425537, -0.30193082219432277, 1791228384480436775
-0.0740857720375061, -0.057245850563049316, -0.31565047447287736, 1791228384510490617
0.04781383275985718, 0.15364551544189453, -0.2822629825453675, 1791228384542247233
0.05405932664871216, -0.15877807140350342, -0.30421465823516197, 1791228384572423000
-0.1762142777442932, -0.2532370686531067, -0.29133969239351826, 1791228384600600972
0.07548868656158447, 0.231347918510437, -0.2633627285381595, 1791228384630685304
-0.013408422470092773, -0.0751984715461731, -0.298281738661649, 1791228384660733636
0.032389163970947266, -0.2228386402130127, -0.32597644062970355, 1791228384690772274
-0.271672785282135, 0.29873037338256836, -0.3116151017119192, 1791228384720828297
0.007816314697265625, -0.2640504837036133, -0.28595414288186777, 1791228384750920403
0.31952351331710815, -0.007306396961212158, -0.27020194780950074, 1791228384782529446
0.03041398525238037, 0.06168931722640991, -0.2733839610018112, 1791228384814778675
-0.48966705799102783, -0.1708441972732544, -0.3593416151261272, 1791228384841060369
-0.05702334642410278, -0.08897638320922852, -0.3034547331020104, 1791228384871077365
-0.2968577742576599, 0.07843971252441406, -0.2916217892630882, 1791228384901118194
0.1536155343055725, -0.14737504720687866, -0.2895822338158834, 1791228384931177712
-0.21391195058822632, 0.07233744859695435, -0.3046716340018617, 1791228384961225648
0.10280197858810425, -0.11130738258361816, -0.2989468811643931, 1791228384991298282
-0.07286304235458374, -0.10690498352050781, -0.30010800327083303, 1791228385022711985
-0.06422072649002075, 0.23645907640457153, -0.3033629342560268, 1791228385054342336
0.07462775707244873, -0.26656556129455566, -0.3295097428454163, 1791228385081528729
-0.18156981468200684, 0.08073639869689941, -0.2948304275629245, 1791228385111532577
0.2488311529159546, -0.005237698554992676, -0.28734225592656204, 1791228385141570327
-0.253662645816803, -0.11772549152374268, -0.2968631141758061, 1791228385171502484
-0.03634530305862427, 0.2518642544746399, -0.31268719396406863, 1791228385201577164
-0.007667124271392822, -0.21839940547943115, -0.3097732479796971, 1791228385230652881
-0.0955650806427002, -0.1742662787437439, -0.27143261918431394, 1791228385263244077
-0.07746285200119019, 0.2210150957107544, -0.2682148529710461, 1791228385294429624
-0.14128845930099487, -0.047342658042907715, -0.3169463002340775, 1791228385321907428
0.053597867488861084, -0.32406532764434814, -0.29924970628931474, 1791228385351825021
0.31573015451431274, 0.20987558364868164, -0.3003074221644622, 1791228385381866977
-0.08806717395782471, -0.10230529308319092, -0.29897973565883545, 1791228385411939845
0.17036479711532593, -0.1323339343070984, -0.31157383041049314, 1791228385440998973
-0.22880905866622925, 0.08557009696960449, -0.2835203362802825, 1791228385472035757
0.1584668755531311, -0.1334781050682068, -0.29689553509028654, 1791228385502316025
-0.44271910190582275, -0.021353483200073242, -0.28694847378027366, 1791228385534482098
0.25490182638168335, 0.029410123825073242, -0.33828585759102203, 1791228385562260496
-0.510650098323822, -0.2347082495689392, -0.30406755879746594, 1791228385592180562
0.4291759133338928, -0.021223366260528564, -0.2826610355115335, 1791228385622248929
-0.17786520719528198, -0.05866372585296631, -0.2814126434686773, 1791228385652266599
0.2263776659965515, 0.009285926818847656, -0.2976924561316901, 1791228385682361951
-0.056904375553131104, 0.09423232078552246, -0.29733375449876154, 1791228385712438617
-0.05081206560134888, -0.14019519090652466, -0.31104234551980753, 1791228385742880527
0.007708549499511719, -0.270338237285614, -0.2813958693015182, 1791228385774758866
0.010051608085632324, 0.1661575436592102, -0.28759481408108784, 1791228385804635106
-0.03309834003448486, 0.013152122497558594, -0.33466298827713, 1791228385832720484
0.16057121753692627, -0.2934436798095703, -0.31822963057210635, 1791228385861657096
0.010485827922821045, 0.20650458335876465, -0.29288912978569004, 1791228385892711567
0.22860479354858398, -0.055557429790496826, -0.3131385542061343, 1791228385922769495
-0.2804422974586487, -0.27292734384536743, -0.29578238180363897, 1791228385952837250
0.09636026620864868, 0.20127016305923462, -0.2988358412626785, 1791228385982866775
-0.2504352927207947, -0.20104968547821045, -0.2759207603611061, 1791228386014662007
0.3327586054801941, 0.06739962100982666, -0.2827878073413469, 1791228386045499562
-0.0013013482093811035, 0.04598802328109741, -0.32063267045053206, 1791228386072974145
0.09638017416000366, -0.02059495449066162, -0.30678781888322065, 1791228386103059475
-0.10977393388748169, 0.12350994348526001, -0.28588551787591193, 1791228386133074815
-0.19060903787612915, -0.23240989446640015, -0.2912259235306535, 1791228386163229913
-0.04527777433395386, -0.061926305294036865, -0.3021144079880871, 1791228386193217378
-0.14875465631484985, 0.1892133355140686, -0.28714208780181044, 1791228386223267174
0.05289572477340698, 0.010948240756988525, -0.29660515159952366, 1791228386254364512
-0.1564863920211792, -0.2811577320098877, -0.2700837774053116, 1791228386286973560
0.6767187118530273, 0.14032214879989624, -0.32772715980882333, 1791228386313415706
-0.46356433629989624, -0.1986929178237915, -0.29188432075412746, 1791228386343471269
-0.29382574558258057, 0.09519356489181519, -0.3306879948736781, 1791228386373495222
-0.08783286809921265, 0.1302720308303833, -0.3292887785422405, 1791228386403568319
-0.20240318775177002, -0.23881816864013672, -0.286212355497253, 1791228386433606539
0.2706364393234253, -0.11683416366577148, -0.25468493511505313, 1791228386463697309
-0.0727648138999939, 0.19941967725753784, -0.2846733859858414, 1791228386494627637
-0.15568524599075317, -0.149280846118927, -0.2844240962460224, 1791228386526641247
-0.0018050670623779297, 0.17025858163833618, -0.3283820628211049, 1791228386554151520
-0.06510019302368164, -0.13220173120498657, -0.31086419839651347, 1791228386583806697
0.1093217134475708, -0.024330317974090576, -0.3046543523121727, 1791228386613868758
0.16392147541046143, 0.16893082857131958, -0.2952710396473137, 1791228386643935591
0.2862415909767151, -0.25760161876678467, -0.2995037825137048, 1791228386672987880
-0.29738426208496094, -0.014390110969543457, -0.28316352429375535, 1791228386704078919
-0.03950977325439453, 0.17560666799545288, -0.3052708796556633, 1791228386734900540
-0.05360966920852661, -0.30235254764556885, -0.28508776821603604, 1791228386767288775
0.4421221613883972, 0.07597887516021729, -0.32142421844392194, 1791228386794298505
0.04652690887451172, -0.06135612726211548, -0.2779308225919487, 1791228386824239963
-0.0443112850189209, -0.1503664255142212, -0.28155372138190177, 1791228386854310865
-0.41089266538619995, 0.2606140971183777, -0.28820353848573804, 1791228386884340550
-0.03656870126724243, -0.22066038846969604, -0.31516653428800956, 1791228386914383904
-0.07272225618362427, -0.250801146030426, -0.3248125815443289, 1791228386944611256
0.2986844778060913, 0.1636863350868225, -0.29578405733716795, 1791228386974462953
-0.1998336911201477, 0.015571951866149902, -0.2680928700120878, 1791228387006480236
-0.1372343897819519, -0.3238053321838379, -0.2706284793644623, 1791228387036593048
0.21542656421661377, 0.3244248032569885, -0.3101903848203942, 1791228387064722846
-0.22326821088790894, -0.07931804656982422, -0.3126437755488212, 1791228387094640293
-0.6020287871360779, -0.19555777311325073, -0.3076666170799333, 1791228387124667744
0.43084716796875, 0.019061684608459473, -0.2917553798181609, 1791228387154794556
-0.05614525079727173, -0.07817965745925903, -0.32187453811114813, 1791228387184005567
0.05502498149871826, -0.11835688352584839, -0.28889218616631024, 1791228387215219344
-0.38987070322036743, 0.09162777662277222, -0.2725731163463702, 1791228387247380377
-0.16217851638793945, 0.025943219661712646, -0.3078662708456064, 1791228387277634703
-0.05040264129638672, 0.011072158813476562, -0.3311066876021984, 1791228387305315197
0.14827769994735718, -0.2511501908302307, -0.29831552364543407, 1791228387335077397
-0.08165764808654785, -0.18364453315734863, -0.2939574162988789, 1791228387365118539
0.04406857490539551, 0.14231199026107788, -0.28477794820669194, 1791228387395175980
-0.19413220882415771, -0.06713563203811646, -0.306929138373114, 1791228387425196733
-0.04051518440246582, -0.27393317222595215, -0.32494946674068537, 1791228387455276908
-0.09840363264083862, 0.10939866304397583, -0.2970602854752547, 1791228387486538658
-0.09772443771362305, -0.019185543060302734, -0.28190634960682454, 1791228387518516608
-0.1477404236793518, -0.23909050226211548, -0.3252386700188389, 1791228387545388650
-0.05203688144683838, 0.07154935598373413, -0.29044050313895386, 1791228387575428035
-0.006111502647399902, -0.041915297508239746, -0.3005228149670316, 1791228387605466015
0.06869107484817505, -0.08634722232818604, -0.3046964467535776, 1791228387635509609
0.05707043409347534, 0.08855664730072021, -0.3051694592376112, 1791228387665646241
-0.08918970823287964, -0.11573654413223267, -0.2919491186480677, 1791228387695672315
0.297987163066864, -0.015042304992675781, -0.286279260999655, 1791228387726541112
-0.4382953643798828, -0.06260943412780762, -0.27439891394103394, 1791228387759225050
0.02536189556121826, -0.030217111110687256, -0.32494518686687895, 1791228387785844836
-0.07237023115158081, 0.2128760814666748, -0.30494381416192945, 1791228387815927822
0.5513185262680054, -0.18653076887130737, -0.3171120229966934, 1791228387845913360
-0.4365336298942566, -0.40769749879837036, -0.2813529040305055, 1791228387876029191
0.06487780809402466, 0.41634029150009155, -0.28597782955371953, 1791228387906060524
-0.31683099269866943, 0.05213087797164917, -0.2972785832544245, 1791228387936249288
0.3224714398384094, -0.08037090301513672, -0.29739193163370464, 1791228387966652822
0.10454732179641724, -0.11892330646514893, -0.2900272178435447, 1791228387998578396
-0.157190203666687, -0.16484636068344116, -0.32039212200708733, 1791228388026270852
0.07491463422775269, 0.14945858716964722, -0.28986901940431625, 1791228388056208876
-0.370296835899353, -0.19838184118270874, -0.30068491413326887, 1791228388086265712
-0.33255237340927124, 0.019131839275360107, -0.303044085093666, 1791228388116282113
-0.13256937265396118, 0.20395106077194214, -0.27685378574680025, 1791228388146333300
0.7335675358772278, -0.0980873703956604, -0.3148931436801802, 1791228388176368619
0.6788060665130615, -0.24563151597976685, -0.2894549477642102, 1791228388207074200
-0.3271639347076416, 0.19135624170303345, -0.2696467829821612, 1791228388238744809
-0.34902316331863403, 0.09262740612030029, -0.3181059361077429, 1791228388268039841
-0.20288223028182983, -0.1710118055343628, -0.3091203512937749, 1791228388306628813
0.3702971935272217, -0.25310808420181274, -0.285925092030913, 1791228388336659200
-0.006783545017242432, -0.018337488174438477, -0.2772295989204208, 1791228388367060602
0.2318369746208191, 0.027021050453186035, -0.26732431484091945, 1791228388398247239
-0.0635417103767395, -0.3146512508392334, -0.2800887662485201, 1791228388429661351
-0.28952813148498535, -0.06725841760635376, -0.3349841264249104, 1791228388456910533
0.2289302945137024, 0.21826720237731934, -0.31275997329337113, 1791228388486901594
-0.12102311849594116, -0.20467513799667358, -0.30928916051657046, 1791228388516957839
0.387245237827301, -0.27413690090179443, -0.28038811846565953, 1791228388545993592
-0.24569153785705566, 0.2171732783317566, -0.2607816088860376, 1791228388577065197
0.29028791189193726, -0.019100844860076904, -0.3030769390909198, 1791228388607128082
-0.34596818685531616, -0.1520766019821167, -0.28907879869948466, 1791228388638770349
0.2076895833015442, -0.020346403121948242, -0.2897303353613194, 1791228388670483368
-0.20414972305297852, -0.13746529817581177, -0.34093349635472375, 1791228388697286217
0.26609164476394653, 0.08751767873764038, -0.28177858611599593, 1791228388727387376
-0.1975124478340149, -0.09007489681243896, -0.2857343088025184, 1791228388757384549
-0.030764281749725342, -0.1380060315132141, -0.29615446497334996, 1791228388787456783
0.11941766738891602, 0.1391628384590149, -0.2986262959689391, 1791228388817460749
-0.10954487323760986, -0.08268672227859497, -0.30956342884953986, 1791228388847546040
0.05429130792617798, -0.2480555772781372, -0.2967633331333032, 1791228388878589388
0.14254599809646606, 0.02228093147277832, -0.26731007620697306, 1791228388910905098
-0.0686330795288086, -0.1283358335494995, -0.317409414789272, 1791228388937704099
0.3084208369255066, 0.0036548972129821777, -0.2858584981136886, 1791228388967689289
-0.4474145770072937, 0.21964961290359497, -0.30324267853650105, 1791228388997793322
0.24244743585586548, -0.19679170846939087, -0.3064548048565028, 1791228389027772115
0.05108064413070679, -0.22210949659347534, -0.30074912392407166, 1791228389056974952
0.1891002058982849, 0.10935443639755249, -0.2880033654218937, 1791228389087916732
-0.1758425235748291, -0.11829864978790283, -0.29180435054289566, 1791228389118872003
-0.07147383689880371, 0.02149420976638794, -0.2811532096725628, 1791228389150791765
-0.47625863552093506, 0.07215279340744019, -0.3659095216240222, 1791228389178144687
-0.03693592548370361, -0.1883816123008728, -0.3124498697892879, 1791228389208259749
0.31600087881088257, 0.07240253686904907, -0.28587943754963313, 1791228389238184403
-0.0624886155128479, -0.0929991602897644, -0.2990394826327247, 1791228389268283023
-0.2108910083770752, -0.12895649671554565, -0.29318107065119187, 1791228389298295757
0.03385061025619507, -0.02019476890563965, -0.2917588668577874, 1791228389328353598
0.37194502353668213, 0.022991299629211426, -0.32320167128795263, 1791228389359384734
-0.26554375886917114, -0.1716099977493286, -0.2914057188147459, 1791228389390485494
0.46455293893814087, 0.0315738320350647, -0.2899909164565969, 1791228389420609273
-0.21980375051498413, -0.14187312126159668, -0.30555807884013375, 1791228389449237753
0.26365184783935547, 0.04240614175796509, -0.27584042297740924, 1791228389479175575
-0.1436634659767151, 0.04785221815109253, -0.29859708784178546, 1791228389509205806
-0.07384490966796875, -0.12652140855789185, -0.32185101236524377, 1791228389539209632
0.19377410411834717, -0.016530632972717285, -0.2914557225629782, 1791228389569197138
-0.02727299928665161, -0.1150282621383667, -0.2831781004488409, 1791228389599246618
-0.033924758434295654, -0.13184916973114014, -0.26488850949261933, 1791228389631424931
-0.004170119762420654, 0.24125432968139648, -0.28788102038919433, 1791228389660641754
0.1089487075805664, -0.17187970876693726, -0.31655030182749444, 1791228389689193735
0.387988805770874, -0.14091050624847412, -0.31860175141729524, 1791228389719228758
-0.2356453537940979, 0.22227567434310913, -0.298777313055974, 1791228389749320258
0.043877363204956055, -0.12246757745742798, -0.29735215605504595, 1791228389779376593
0.015224099159240723, -0.28064262866973877, -0.280989844708523, 1791228389809345111
0.16658204793930054, 0.2187010645866394, -0.28992985841789076, 1791228389839393171
0.07974869012832642, -0.10155594348907471, -0.3029333928623973, 1791228389869992009
0.16692239046096802, -0.08493995666503906, -0.28138856897771103, 1791228389902789975
-0.05240970849990845, -0.04983872175216675, -0.3226734798813045, 1791228389929477472
-0.030380845069885254, -0.14434456825256348, -0.2915149028694259, 1791228389959500812
-0.14053797721862793, 0.008863747119903564, -0.2827710312837956, 1791228389989482047
0.03854811191558838, -0.053035855293273926, -0.2878778644218768, 1791228390019518966
-0.2313525676727295, 0.029297947883605957, -0.31124525757241683, 1791228390049540365
0.03353053331375122, 0.03416597843170166, -0.3101800428746026, 1791228390079531617
0.30605965852737427, -0.37311816215515137, -0.29471309077868896, 1791228390110609125
-0.04625248908996582, -0.19579178094863892, -0.2642810863313905, 1791228390142525589
-0.5847292542457581, 0.4624584913253784, -0.31722020169817144, 1791228390169770145
0.009335994720458984, -0.23173433542251587, -0.31163668975739395, 1791228390199699717
0.010578632354736328, -0.22504717111587524, -0.317209423575248, 1791228390229762357
0.1514468789100647, 0.11757761240005493, -0.30089914490979036, 1791228390259806042
-0.2930392622947693, -0.08361339569091797, -0.3019140194655069, 1791228390288898909
0.027361392974853516, -0.021095991134643555, -0.26837671952221, 1791228390319906951
0.02403104305267334, -0.03433191776275635, -0.2870748392894507, 1791228390350542733
-0.16806530952453613, -0.14312869310379028, -0.28313658870008723, 1791228390383231694
0.23804372549057007, 0.07137584686279297, -0.3344810765611242, 1791228390410126682
-0.0672178864479065, -0.15965217351913452, -0.3077353004963626, 1791228390440083844
-0.1840531826019287, -0.2614322304725647, -0.2854364873696673, 1791228390470154693
0.2785433530807495, 0.0957605242729187, -0.27802534424934916, 1791228390500182405
-0.32446110248565674, 0.08601146936416626, -0.3043353429807852, 1791228390530242493
-0.1302456259727478, -0.13989073038101196, -0.32031628344024243, 1791228390560282632
-0.2243857979774475, 0.03334623575210571, -0.3151880820925689, 1791228390590604152
0.1018376350402832, -0.22381728887557983, -0.27395416833282416, 1791228390622553099
-0.143734872341156, -0.14284491539001465, -0.2849189526983124, 1791228390650531244
0.11646729707717896, 0.1857127547264099, -0.2721337240129344, 1791228390680468353
-0.1550060510635376, 0.02999091148376465, -0.29164465373539183, 1791228390710586239
-0.03102552890777588, -0.09821492433547974, -0.29948711258425004, 1791228390740641489
0.22004002332687378, -0.26051121950149536, -0.30531078132864475, 1791228390770897703
-0.3218268156051636, -0.13817965984344482, -0.3023995242392176, 1791228390800695622
0.4501975178718567, 0.1499813199043274, -0.274325454470127, 1791228390831261821
-0.2543989419937134, -0.10541915893554688, -0.291417045313814, 1791228390862799848
0.25804924964904785, -0.3463749885559082, -0.32270463458545223, 1791228390892863014
-0.4388594627380371, 0.30052995681762695, -0.3427980370845685, 1791228390920875798
0.37540459632873535, -0.06133812665939331, -0.32790734685092865, 1791228390949931670
-0.2208591103553772, -0.33326148986816406, -0.2804140461499133, 1791228390980935267
0.30042028427124023, 0.05291414260864258, -0.30021580947938387, 1791228391011024600
-0.22651934623718262, 0.0696449875831604, -0.3192872384752649, 1791228391041045004
-0.058016180992126465, -0.018414616584777832, -0.3143253143825588, 1791228391071135450
-0.042552649974823, -0.09324616193771362, -0.2938427025662692, 1791228391102673817
-0.026456058025360107, -0.14754927158355713, -0.28564494832307796, 1791228391134258372
0.1836722493171692, 0.13618892431259155, -0.33172665009633234, 1791228391161343661
-0.013626158237457275, -0.33055579662323, -0.29949230789780046, 1791228391191304972
-0.08426553010940552, -0.07106363773345947, -0.3110197198190397, 1791228391221351998
0.2550472617149353, 0.2132619023323059, -0.3032687987254966, 1791228391251423088
-0.3351481556892395, -0.19098806381225586, -0.3078856739014216, 1791228391281428222
0.3613412380218506, -0.1451265811920166, -0.2936278676178818, 1791228391311541833
-0.21987706422805786, 0.19080793857574463, -0.27211108927648014, 1791228391343172424
0.3349466919898987, -0.14675140380859375, -0.2867024364015584, 1791228391374736367
0.007539033889770508, -0.0957990288734436, -0.3399609839330494, 1791228391401728012
-0.06125032901763916, 0.1788935661315918, -0.30062159048940745, 1791228391431708339
-0.2845667600631714, -0.1454986333847046, -0.29668018894450376, 1791228391461725021
0.19194358587265015, -0.09003108739852905, -0.27592818446608214, 1791228391491757258
0.04057133197784424, 0.09245622158050537, -0.2934818949609078, 1791228391521813596
-0.1410868763923645, -0.19390195608139038, -0.30346795111081415, 1791228391551893993
-0.05074000358581543, 0.2371000051498413, -0.29580721835689566, 1791228391582627864
-0.1785975694656372, -0.0269659161567688, -0.2727516527452606, 1791228391614918710
0.6638181209564209, -0.13422584533691406, -0.3315298183035979, 1791228391642094135
-0.3751905560493469, -0.13261479139328003, -0.2750340634178704, 1791228391672093731
0.03277498483657837, -0.0893215537071228, -0.29858711727429255, 1791228391702132382
-0.10907655954360962, -0.11290699243545532, -0.30005751418639637, 1791228391732218525
0.03701740503311157, 0.21722310781478882, -0.3013694784309248, 1791228391762242693
0.04222381114959717, -0.15877485275268555, -0.3085445436903303, 1791228391792309535
0.059334754943847656, -0.16135114431381226, -0.289622093463335, 1791228391822617026
0.13628536462783813, 0.14032769203186035, -0.25883386063300146, 1791228391855096876
-0.05672186613082886, -0.10646307468414307, -0.332857457389077, 1791228391882538998
-0.07586747407913208, -0.03746432065963745, -0.30563844610955077, 1791228391912527649
-0.11084604263305664, 0.05463516712188721, -0.3099264208130632, 1791228391942528515
-0.21920865774154663, -0.048512816429138184, -0.31628952652384973, 1791228391972544790
0.15980809926986694, 0.08335161209106445, -0.28598894975460504, 1791228392002647852
-0.07555001974105835, -0.14416033029556274, -0.29736948335537927, 1791228392032665608
-0.17177307605743408, -0.009121596813201904, -0.31549081096741277, 1791228392062960616
0.04870200157165527, 0.20250976085662842, -0.2698482101852984, 1791228392094703903
-0.03626745939254761, -0.2002127766609192, -0.2919168907902496, 1791228392124881928
-0.11928308010101318, -0.2081160545349121, -0.3205485048058649, 1791228392152896233
0.27340584993362427, -0.025792717933654785, -0.2805621238729607, 1791228392183145737
-0.1929783821105957, -0.058024823665618896, -0.2951615016071738, 1791228392213027131
-0.15531915426254272, 0.04752326011657715, -0.3057098035595652, 1791228392243057065
-0.20124369859695435, 0.0007528066635131836, -0.29856906678127226, 1791228392273096119
0.02788609266281128, -0.21724849939346313, -0.2921306088470007, 1791228392303162339
-0.007547199726104736, 0.2758294343948364, -0.278023373979378, 1791228392334637471
-0.026936113834381104, -0.2584190368652344, -0.2581230682540122, 1791228392366090612
0.4329627752304077, -0.10784822702407837, -0.3165924401314065, 1791228392393283133
-0.1611114740371704, 0.09089815616607666, -0.28432075297651455, 1791228392423309477
-0.478640079498291, -0.11790823936462402, -0.2954797744960951, 1791228392453376588
0.11876475811004639, -0.16601526737213135, -0.30580176664221337, 1791228392483395941
0.08454650640487671, 0.18520492315292358, -0.30115660829817076, 1791228392513617702
-0.09171348810195923, -0.20185142755508423, -0.28995111552071184, 1791228392544227252
-0.0981854796409607, -0.22423619031906128, -0.28665424009209667, 1791228392574716226
0.05393683910369873, 0.3251116871833801, -0.27302995999375385, 1791228392606887516
-0.09672772884368896, -0.06009155511856079, -0.33766420912523326, 1791228392634251311
0.0682174563407898, -0.1639896035194397, -0.2935040719628324, 1791228392664319419
-0.023381531238555908, 0.05146181583404541, -0.3027072182584356, 1791228392694333190
-0.02186030149459839, -0.2540065050125122, -0.30359199931877573, 1791228392724314671
0.03285342454910278, -0.046711087226867676, -0.2892007201339256, 1791228392754485000
-0.07922756671905518, 0.036443114280700684, -0.32261644803193157, 1791228392784380345
-0.4248497486114502, -0.04492354393005371, -0.31160417575602006, 1791228392815099196
0.354386568069458, 0.06908977031707764, -0.2820768658729683, 1791228392847137382
-0.2735869288444519, -0.18523669242858887, -0.34034102533647104, 1791228392874124426
-0.01596534252166748, -0.1709546446800232, -0.28049618913187296, 1791228392904133073
0.022954583168029785, 0.27342844009399414, -0.2722225618005305, 1791228392934147950
0.0635877251625061, -0.18992304801940918, -0.30526591067511105, 1791228392964180993
-0.021248936653137207, -0.1565176248550415, -0.308338430677846, 1791228392994231818
0.07953590154647827, 0.20626455545425415, -0.28745703735265016, 1791228393024301040
0.3283267021179199, -0.09875082969665527, -0.30041557661796026, 1791228393054693136
-0.25422203540802, -0.18702220916748047, -0.27853034503401175, 1791228393086834037
0.0886337161064148, 0.19590580463409424, -0.3125583409936342, 1791228393114490254
-0.3362247347831726, -0.11573374271392822, -0.29680431469381047, 1791228393144490244
0.5682942867279053, -0.07517880201339722, -0.3009115942950645, 1791228393174500922
-0.4145013093948364, 0.08405536413192749, -0.3007437813088765, 1791228393204596223
0.4630151391029358, -0.13569122552871704, -0.2967021952542811, 1791228393234634638
-0.08836257457733154, -0.05598026514053345, -0.2859978801249074, 1791228393264674133
0.2627195119857788, 0.019459903240203857, -0.2919978853599144, 1791228393294919126
0.01303112506866455, 0.03282654285430908, -0.2933640968109098, 1791228393327266581
0.11456692218780518, 0.032044291496276855, -0.31924668971493686, 1791228393354961989
0.12800955772399902, -0.22671538591384888, -0.2916666055340708, 1791228393384877327
0.09055358171463013, -0.14012879133224487, -0.2845714517755903, 1791228393414905999
-0.09288954734802246, 0.2491089105606079, -0.28019732900799377, 1791228393444950632
-0.09997415542602539, 0.02001798152923584, -0.3236222362232869, 1791228393472981029
-0.21998190879821777, -0.17516392469406128, -0.2992637357144338, 1791228393505072935
0.5787515044212341, 0.16571897268295288, -0.32031524515489285, 1791228393535204985
-0.2126319408416748, -0.041540324687957764, -0.2700134005075131, 1791228393566965965
0.06389081478118896, 0.18823647499084473, -0.2683270511109459, 1791228393597800880
-0.29494863748550415, -0.2082444429397583, -0.31439434539026334, 1791228393625468329
-0.06111568212509155, -0.2110310196876526, -0.30863496845651084, 1791228393655337107
0.07184576988220215, 0.30702149868011475, -0.3217135956715521, 1791228393685344491
0.16717392206192017, -0.09729820489883423, -0.31329010035069266, 1791228393715398474
0.0023442506790161133, -0.16615021228790283, -0.28453360176744774, 1791228393745481845
0.06923121213912964, 0.17587584257125854, -0.2746315015775989, 1791228393775529783
0.003923177719116211, 0.022930800914764404, -0.27667666474909575, 1791228393806972865
-0.27602022886276245, -0.1511043906211853, -0.29570821075308695, 1791228393838579674
0.16584932804107666, 0.15331274271011353, -0.36793819459566124, 1791228393865728326
-0.06299030780792236, -0.13437527418136597, -0.31819209137348986, 1791228393895690795
0.6551822423934937, 0.07470184564590454, -0.3007016695743465, 1791228393925755895
-0.5226911306381226, 0.006748497486114502, -0.27965617712407664, 1791228393955872177
-0.07330536842346191, 0.04062306880950928, -0.284905827646699, 1791228393985822274
0.11844480037689209, 0.013283789157867432, -0.2861999463139085, 1791228394015902170
0.050984740257263184, -0.1315479874610901, -0.300285235472853, 1791228394047148121
0.05364447832107544, -0.1402592658996582, -0.27078591926808043, 1791228394079178950
0.08062624931335449, 0.18894541263580322, -0.2957940803229594, 1791228394106076588
-0.1661161184310913, -0.08747363090515137, -0.2811576348521895, 1791228394136107555
-0.01986074447631836, -0.23126256465911865, -0.28751814461077224, 1791228394166142633
0.05983978509902954, 0.22051751613616943, -0.3057121322378351, 1791228394196191360
0.036281466484069824, 0.006226599216461182, -0.3417274273262478, 1791228394226246025
-0.050664663314819336, -0.23760467767715454, -0.3074141490648551, 1791228394256314296
0.10385715961456299, 0.15586090087890625, -0.27954285448161675, 1791228394287335410
-0.12465757131576538, -0.03898876905441284, -0.2856531314716674, 1791228394318888612
-0.27515506744384766, 0.01636260747909546, -0.3259295218519423, 1791228394346517807
0.19914007186889648, 0.04417175054550171, -0.3128396528188774, 1791228394376478756
-0.09341776371002197, -0.08899998664855957, -0.31283218588987444, 1791228394406525469
0.35603195428848267, -0.05736476182937622, -0.278331393231925, 1791228394436548578
-0.06972610950469971, -0.06331008672714233, -0.28896246874862125, 1791228394466605062
-0.06191498041152954, -0.08165794610977173, -0.28889399605918714, 1791228394496658370
-0.014779150485992432, 0.1747632622718811, -0.2881850877054033, 1791228394527206297
-0.14534693956375122, -0.17825281620025635, -0.3189227111087916, 1791228394558041456
0.11787641048431396, -0.22891807556152344, -0.3054835754782104, 1791228394588916630
-0.10618847608566284, 0.35431116819381714, -0.30684673026935094, 1791228394616827932
0.2144528031349182, -0.14080697298049927, -0.2848405145693045, 1791228394646917748
0.08561825752258301, -0.06026870012283325, -0.2943506371689272, 1791228394676937584
0.11383986473083496, 0.034579694271087646, -0.304980358273684, 1791228394707030023
-0.41823506355285645, -0.1477251648902893, -0.31668993590149913, 1791228394737055873
0.13398510217666626, -0.058910489082336426, -0.31344620664768397, 1791228394766131254
-0.25219494104385376, 0.09820210933685303, -0.26683994576916636, 1791228394799240937
0.3041670322418213, -0.1988101601600647, -0.2782977683251019, 1791228394830348013
-0.08975034952163696, 0.21190905570983887, -0.33537829219216836, 1791228394857345478
-0.110767662525177, -0.0238494873046875, -0.3165497382707955, 1791228394887306531
0.1073877215385437, -0.15958565473556519, -0.30834068028223843, 1791228394917359686
0.007499575614929199, 0.04173022508621216, -0.29385325921905003, 1791228394947454462
-0.07466167211532593, -0.2540662884712219, -0.2876681908934381, 1791228394977518862
-0.04171246290206909, -0.018234074115753174, -0.29151292969150505, 1791228395007645680
-0.11237168312072754, 0.12236553430557251, -0.2755191308940091, 1791228395039386421
0.0917060375213623, -0.132132887840271, -0.2997098040287051, 1791228395070275926
-0.11915409564971924, 0.12755882740020752, -0.337552687535648, 1791228395097677050
-0.0717507004737854, 0.06104940176010132, -0.29708304741767144, 1791228395127725585
-0.2300437092781067, -0.154099702835083, -0.29407704162692155, 1791228395157751001
0.003306269645690918, 0.24939888715744019, -0.29437575299293106, 1791228395187802716
-0.031144142150878906, -0.15720278024673462, -0.2942475229964619, 1791228395217907015
0.03520488739013672, -0.24098855257034302, -0.3026494984186371, 1791228395247928778
0.46026015281677246, 0.372419536113739, -0.27966546381632507, 1791228395279220412
-0.026063859462738037, -0.12778955698013306, -0.2742825979661582, 1791228395311532816
0.06235843896865845, -0.22407257556915283, -0.33532676958031576, 1791228395338124841
-0.3853038549423218, 0.32263344526290894, -0.2861770130251917, 1791228395368144423
0.1495063304901123, -0.0878869891166687, -0.2993683275367316, 1791228395398158034
-0.14106589555740356, -0.08162897825241089, -0.29934253992748966, 1791228395428158186
0.6213588118553162, 0.09564322233200073, -0.28554585448042225, 1791228395458212423
-0.3831653594970703, -0.19048887491226196, -0.29501982164206836, 1791228395488302548
0.3597787022590637, -0.00834190845489502, -0.2753514860050385, 1791228395519260788
-0.11350923776626587, 0.2060489058494568, -0.28568336137305994, 1791228395551062726
0.035933613777160645, -0.1525844931602478, -0.35632785245348375, 1791228395578526479
0.07718908786773682, -0.023135483264923096, -0.30677326401464045, 1791228395608557422
0.05924290418624878, 0.017747104167938232, -0.29355394740813423, 1791228395638549105
-0.15237528085708618, -0.04857957363128662, -0.29156630042998527, 1791228395668875093
0.030687451362609863, 0.054883718490600586, -0.27712320821692626, 1791228395698633563
0.2739500403404236, -0.0234144926071167, -0.2850832037197396, 1791228395729406313
-0.04324394464492798, 0.007534801959991455, -0.30740336130351537, 1791228395759566989
0.045514047145843506, 0.053942859172821045, -0.27185028127587546, 1791228395790760254
0.48119813203811646, -0.08756542205810547, -0.2905944364429401, 1791228395820933632
-0.13345420360565186, -0.2917492985725403, -0.3145971347497052, 1791228395849427682
-0.22548538446426392, 0.3088276982307434, -0.2993835244194382, 1791228395879471453
0.2175855040550232, -0.03638041019439697, -0.30509988293307116, 1791228395909459737
0.07055813074111938, -0.0037224888801574707, -0.3084428476386319, 1791228395939515163
0.17491203546524048, 0.0611346960067749, -0.289818631857969, 1791228395969736434
0.002774059772491455, -0.17714530229568481, -0.28793699694794844, 1791228395999547024
-0.09649378061294556, 0.030916810035705566, -0.27761135562002487, 1791228396030838887
-0.27220040559768677, 0.026918113231658936, -0.2886373031186557, 1791228396061013759
-0.04461020231246948, -0.02266138792037964, -0.3154487134408574, 1791228396089599134
0.23291021585464478, 0.10102427005767822, -0.2971504867801264, 1791228396119573662
-0.07087939977645874, -0.04998922348022461, -0.29290793945569804, 1791228396149623460
0.02139228582382202, -0.24095386266708374, -0.2739160516058015, 1791228396179661783
0.4008312225341797, 0.44705891609191895, -0.3064232063575558, 1791228396209643789
-0.22608816623687744, -0.1689678430557251, -0.3243813116220958, 1791228396239788197
-0.3112109899520874, -0.23015594482421875, -0.30903336308330376, 1791228396271406515
0.0019208788871765137, 0.28172624111175537, -0.2736526996529871, 1791228396303163175
-0.12942630052566528, 0.004150092601776123, -0.30043772855255385, 1791228396329804974
0.14204704761505127, -0.19945299625396729, -0.26992147707205466, 1791228396359842233
-0.26790040731430054, 0.14331454038619995, -0.30055884573745206, 1791228396389908810
0.010893464088439941, 0.026802778244018555, -0.3038981620480698, 1791228396420077917
0.009208977222442627, 0.22937190532684326, -0.3109508348133894, 1791228396448984939
-0.04362154006958008, -0.15740692615509033, -0.30169419665381, 1791228396479964281
0.059344589710235596, -0.11822301149368286, -0.2659437463446161, 1791228396510909018
0.011028707027435303, 0.24832218885421753, -0.24647931297803385, 1791228396543221505
-0.15762591361999512, -0.04010820388793945, -0.33437287553642747, 1791228396570220695
-0.18714183568954468, -0.1560855507850647, -0.31749732099327393, 1791228396600062769
0.04367309808731079, 0.2391601800918579, -0.3127317396527122, 1791228396630164488
0.05599015951156616, -0.061889052391052246, -0.32421389429564346, 1791228396659188119
-0.03026515245437622, -0.05943107604980469, -0.2778225654039138, 1791228396690263048
-0.028208673000335693, 0.12219077348709106, -0.2790966295092036, 1791228396720326724
-0.050187110900878906, 0.02825063467025757, -0.3033439001872464, 1791228396751154904
0.09836995601654053, -0.03449058532714844, -0.28795373159362403, 1791228396783549357
0.21698224544525146, -0.08238697052001953, -0.33934230276419264, 1791228396810547006
0.06640183925628662, -0.11464953422546387, -0.29477156258655673, 1791228396840489293
0.09574359655380249, 0.13141930103302002, -0.2719313486660124, 1791228396870582254
-0.21567541360855103, -0.06348186731338501, -0.27300091527273807, 1791228396900573797
0.1755005121231079, -0.16420048475265503, -0.28832899593191275, 1791228396930635714
-0.2542800307273865, 0.3178443908691406, -0.31945979401769786, 1791228396960651762
0.2252030372619629, -0.04739874601364136, -0.324496784096697, 1791228396991246824
-0.21120470762252808, -0.24652624130249023, -0.2942160871052319, 1791228397022897180
0.18752408027648926, 0.14141178131103516, -0.29404477960542086, 1791228397050894339
-0.2545427680015564, -0.01392143964767456, -0.28125304418471886, 1791228397080876227
0.11937028169631958, -0.13141405582427979, -0.29251458299533495, 1791228397110939900
-0.19624298810958862, 0.1791553497314453, -0.31659752706884375, 1791228397140963218
0.15077710151672363, -0.04959118366241455, -0.31579861447456287, 1791228397171030244
0.16552519798278809, -0.07391774654388428, -0.28496410323414656, 1791228397201074243
-0.0035692453384399414, 0.11127078533172607, -0.26735861579208753, 1791228397231602473
-0.13660907745361328, -0.06327444314956665, -0.2752722096738243, 1791228397262906945
-0.0010042786598205566, 0.06659877300262451, -0.318743516290596, 1791228397292994588
-0.024827122688293457, -0.1481233835220337, -0.3492012926020469, 1791228397331302064
0.1735590100288391, -0.0611911416053772, -0.30242573453568256, 1791228397361332832
-0.1264769434928894, 0.18684351444244385, -0.2828098027845033, 1791228397391415402
-0.02044987678527832, -0.10366255044937134, -0.2707418847604885, 1791228397423351013
-0.09274834394454956, 0.013721346855163574, -0.2892248349041136, 1791228397454409741
-0.12684589624404907, -0.02288508415222168, -0.3399662817835454, 1791228397481543891
-0.101307213306427, -0.00946730375289917, -0.3136491373880318, 1791228397511530565
0.15147972106933594, -0.011093974113464355, -0.2938484199838936, 1791228397541582381
-0.035848259925842285, -0.0997421145439148, -0.30407178163866194, 1791228397571637608
0.018114864826202393, -0.14113366603851318, -0.2745011627144431, 1791228397601664084
0.16325831413269043, 0.34908872842788696, -0.2765092146913151, 1791228397631758829
-0.4073232412338257, 0.010532379150390625, -0.3008493135313359, 1791228397663458831
0.21634310483932495, -0.3694469928741455, -0.2870838142216085, 1791228397694918511
0.06626296043395996, 0.16441625356674194, -0.34703006588531093, 1791228397720992154
0.3229345679283142, 0.03697192668914795, -0.29451754594550705, 1791228397751962755
-0.3312984108924866, -0.13629865646362305, -0.2869840086953716, 1791228397782042678
0.30263251066207886, 0.190521240234375, -0.31142236359184294, 1791228397812109572
-0.1450744867324829, -0.10313558578491211, -0.32431815018357535, 1791228397842185909
0.31699758768081665, 0.21664631366729736, -0.28642386833967143, 1791228397872224555
-0.4473147988319397, -0.1770845651626587, -0.29113858770905027, 1791228397902939917
-0.06427466869354248, -0.11355334520339966, -0.2944850497834022, 1791228397934334725
0.06803876161575317, 0.30295705795288086, -0.3176101789899084, 1791228397961338537
-0.04763299226760864, -0.030944228172302246, -0.2904096001209246, 1791228397992313552
-0.012834012508392334, -0.1797235608100891, -0.29958561983049853, 1791228398022356675
0.21114766597747803, 0.1013752818107605, -0.2856772700668751, 1791228398052433534
0.07948452234268188, -0.15100330114364624, -0.30580933838013635, 1791228398082452698
0.08730226755142212, -0.044225215911865234, -0.30616112764723097, 1791228398112573015
-0.4248383045196533, 0.2422037124633789, -0.287764446786634, 1791228398141998088
0.0882452130317688, 0.10619324445724487, -0.27994229479281796, 1791228398175024281
-0.05611497163772583, -0.13428723812103271, -0.32461727451078787, 1791228398202783111
0.1270710825920105, -0.08586573600769043, -0.2954655944472609, 1791228398232743329
-0.12389659881591797, -0.029818475246429443, -0.3015177610388084, 1791228398262806118
-0.04340094327926636, 0.12179648876190186, -0.2887076108516644, 1791228398292825763
-0.05279707908630371, 0.020749449729919434, -0.30551726089489306, 1791228398321992062
-0.06462877988815308, -0.08367091417312622, -0.30840985675212573, 1791228398352946402
0.33444440364837646, 0.11345779895782471, -0.3003279798839067, 1791228398382995738
-0.28797072172164917, -0.2099347710609436, -0.2680185581959469, 1791228398414902586
0.13255155086517334, -0.058848023414611816, -0.31341292281760336, 1791228398443154179
-0.2819353938102722, 0.22484344244003296, -0.2931930399114929, 1791228398473102984
0.6976139545440674, -0.14890480041503906, -0.31233352746998655, 1791228398503161141
-0.5061681866645813, -0.1318536400794983, -0.3126856298567631, 1791228398533194267
0.2535921335220337, 0.2685079574584961, -0.30646173946152017, 1791228398562255080
-0.2015330195426941, -0.17069971561431885, -0.2718544078132597, 1791228398593468560
0.18708723783493042, -0.029855549335479736, -0.29721351174326205, 1791228398623380808
0.04346805810928345, 0.12033623456954956, -0.2878304173813003, 1791228398654970879
-0.027454614639282227, -0.13369476795196533, -0.29146462742147167, 1791228398686234213
0.0498272180557251, 0.1800583004951477, -0.32814865955324923, 1791228398713535398
-0.03841733932495117, -0.17561841011047363, -0.29497395709518287, 1791228398743635468
-0.12877261638641357, -0.16342169046401978, -0.29821893776410546, 1791228398773636869
-0.05332261323928833, 0.3770461678504944, -0.2849029273476576, 1791228398803719822
-0.21347969770431519, -0.01556330919265747, -0.2980573397417536, 1791228398833772538
0.2373456358909607, -0.06870400905609131, -0.3116596991897937, 1791228398863800339
0.17509055137634277, 0.11215788125991821, -0.2757216755020816, 1791228398895653671
0.06419360637664795, 0.09765797853469849, -0.29372714100942066, 1791228398927256357
-0.07031649351119995, -0.21339315176010132, -0.3421077284463999, 1791228398953917304
-0.09314799308776855, 0.1891193389892578, -0.3089862593251828, 1791228398983920990
-0.10061866044998169, -0.02019709348678589, -0.2986103382551156, 1791228399012979129
0.02722454071044922, -0.02788931131362915, -0.2721135035353579, 1791228399044047494
0.17599040269851685, 0.04024624824523926, -0.2931727621795444, 1791228399074115559
-0.07217013835906982, -0.2068139910697937, -0.29904899126579976, 1791228399104179622
-0.07076781988143921, 0.13839870691299438, -0.2874961983342922, 1791228399133993589
0.19104671478271484, -0.08420717716217041, -0.2655747354449107, 1791228399167590102
-0.2413179874420166, 0.025841355323791504, -0.35923156129695116, 1791228399194584464
0.11072421073913574, 0.03356724977493286, -0.29507412733209964, 1791228399224397369
0.5629535913467407, -0.00671839714050293, -0.31708368675436804, 1791228399254567223
-0.250365674495697, -0.38086628913879395, -0.2986274557853716, 1791228399284516926
-0.35373103618621826, 0.36079883575439453, -0.2931840284213879, 1791228399314519621
0.10252326726913452, 0.2007673978805542, -0.3025680919800959, 1791228399344607332
-0.2989366054534912, -0.17055624723434448, -0.3069591270684474, 1791228399375050183
0.28514033555984497, -0.03726726770401001, -0.28618216178746364, 1791228399407880556
0.044307172298431396, -0.11144477128982544, -0.30906737792302547, 1791228399444683526
0.0244179368019104, 0.33753329515457153, -0.28231768953488645, 1791228399474741898
-0.215947687625885, -0.213295578956604, -0.2969144898797668, 1791228399504806861
-0.1308079957962036, -0.12348705530166626, -0.3020646385494486, 1791228399535499154
-0.016843557357788086, 0.2924368977546692, -0.2756951116751798, 1791228399567567162
-0.1584317684173584, -0.0947144627571106, -0.3356696575891902, 1791228399594011534
0.5150784850120544, -0.03997987508773804, -0.27934718732742436, 1791228399624966681
-0.24206751585006714, 0.03206908702850342, -0.2753945251785201, 1791228399655332763
0.1332492232322693, 0.04617190361022949, -0.302199861418933, 1791228399685100478
0.06678891181945801, -0.14553302526474, -0.2842512543618589, 1791228399715143239
0.07301008701324463, 0.09604322910308838, -0.29645419791783867, 1791228399745198759
0.10108232498168945, -0.12252509593963623, -0.2942022571093431, 1791228399775376554
0.09305393695831299, 0.14333784580230713, -0.29081900429598373, 1791228399806270902
-0.38374197483062744, -0.18106120824813843, -0.2787161109330921, 1791228399836981522
-0.12577611207962036, 0.0593944787979126, -0.3021554343183378, 1791228399865433348
0.10886234045028687, 0.2880978584289551, -0.2943663106551353, 1791228399895458739
0.10907924175262451, -0.14842212200164795, -0.3141149318482278, 1791228399925506091
-0.1470535397529602, -0.10994559526443481, -0.29651195206719005, 1791228399955520368
-0.02261120080947876, 0.1977672576904297, -0.2744389357804967, 1791228399985604525
0.277678906917572, -0.014187097549438477, -0.29293066641578464, 1791228400015721568
-0.31347036361694336, -0.18182629346847534, -0.28045371715791473, 1791228400047605745
-0.42070966958999634, 0.274208664894104, -0.30252134515219925, 1791228400079128719
-0.030003905296325684, -0.08756709098815918, -0.3424973774289277, 1791228400105814744
0.10023671388626099, -0.0250624418258667, -0.2872024644772056, 1791228400135823425
0.0725940465927124, 0.044548749923706055, -0.30012323233301824, 1791228400165869491
-0.15657061338424683, -0.09786248207092285, -0.3061599729037257, 1791228400195946367
0.06099444627761841, 0.12931448221206665, -0.2932864725522457, 1791228400225967806
-0.04886072874069214, -0.011123180389404297, -0.3060301267100055, 1791228400256060654
-0.12207430601119995, -0.12437915802001953, -0.2886813275942037, 1791228400287425530
0.010530591011047363, 0.1395782232284546, -0.2710894883027529, 1791228400319181546
0.09967154264450073, -0.22228920459747314, -0.33077020249462014, 1791228400346232659
-0.3488210439682007, -0.05307191610336304, -0.29210825731079887, 1791228400376211962
0.05539220571517944, 0.2460707426071167, -0.2994876667034265, 1791228400406241467
-0.3835405111312866, -0.06928026676177979, -0.3220897857458248, 1791228400436299146
0.14947140216827393, -0.21026599407196045, -0.28877573407369656, 1791228400466332540
-0.13855385780334473, 0.1728452444076538, -0.2721520129754883, 1791228400496419796
-0.03967803716659546, -0.010108649730682373, -0.27848551708289343, 1791228400527236097
-0.12813138961791992, 0.024120807647705078, -0.27036580047178244, 1791228400559624928
0.1600121259689331, 0.040673911571502686, -0.34719169571086583, 1791228400586712814
0.060113728046417236, -0.07315373420715332, -0.3352630623363929, 1791228400616675901
0.04230844974517822, 0.003925681114196777, -0.2970856906760023, 1791228400646704651
0.03235042095184326, -0.022058188915252686, -0.27377956474515464, 1791228400676807757
-0.23762965202331543, -0.010053396224975586, -0.27872491594214305, 1791228400706812455
0.2528992295265198, -0.07023310661315918, -0.285990788811169, 1791228400736821602
-0.065998375415802, -0.04132187366485596, -0.3165065172059915, 1791228400767235308
0.23837023973464966, -0.015095114707946777, -0.29778133359971665, 1791228400799433182
-0.015012562274932861, 0.11931997537612915, -0.31511674978658344, 1791228400827032386
0.12728118896484375, -0.13942742347717285, -0.2999861227023749, 1791228400855979004
-0.14231407642364502, 0.03450292348861694, -0.2900751499913747, 1791228400887040287
-0.037700355052948, 0.27736395597457886, -0.2761193680020234, 1791228400909198909
-0.0606500506401062, -0.05890774726867676, -0.34595435842162064, 1791228400947148150
0.13638299703598022, 0.04238027334213257, -0.31426835679140924, 1791228400977156660
-0.06165212392807007, -0.13780134916305542, -0.2953129682781791, 1791228401007546554
-0.1888822317123413, -0.08460795879364014, -0.26022895521520273, 1791228401039767610
-0.10295981168746948, 0.3132510185241699, -0.27402555607601686, 1791228401069626905
-0.25130540132522583, -0.14331722259521484, -0.3381020100935824, 1791228401106411066
0.17338818311691284, -0.23833125829696655, -0.3090852854947251, 1791228401137439288
-0.07625418901443481, 0.23010355234146118, -0.31986713036221404, 1791228401167574894
-0.29124051332473755, -0.012092769145965576, -0.2743804791857854, 1791228401199601792
0.04896402359008789, -0.06302487850189209, -0.2638572505192038, 1791228401230615764
-0.4109455943107605, 0.007986962795257568, -0.34245044043133105, 1791228401257671935
-0.10336554050445557, -0.05602836608886719, -0.3094704835282447, 1791228401287719005
0.11329644918441772, 0.1907200813293457, -0.2844005491029899, 1791228401317740962
0.04409152269363403, -0.14460396766662598, -0.2926276763099725, 1791228401347793188
0.13140171766281128, -0.23941773176193237, -0.28147345005658125, 1791228401377844237
0.07404649257659912, 0.2467995285987854, -0.2718604332676757, 1791228401407912010
0.1627647876739502, -0.10133087635040283, -0.2953860320990546, 1791228401439411986
-0.4305317997932434, -0.09046709537506104, -0.3053763740762641, 1791228401471492099
0.37752091884613037, 0.08554625511169434, -0.33224995307308647, 1791228401498022115
-0.2049194574356079, -0.15527087450027466, -0.28795772757051485, 1791228401528062337
0.4746788740158081, -0.07483553886413574, -0.2650527456677132, 1791228401558144117
-0.39759576320648193, 0.3819541335105896, -0.281134635288689, 1791228401588204576
0.18126118183135986, -0.12595397233963013, -0.3052000269543648, 1791228401618240474
-0.31305259466171265, -0.11817514896392822, -0.31711237673616555, 1791228401648362018
0.4119712710380554, 0.06637382507324219, -0.29268102484842595, 1791228401679572944
-0.2574087381362915, 0.012972056865692139, -0.27499556661651736, 1791228401711570642
0.026184558868408203, 0.18130236864089966, -0.3142306557353456, 1791228401747488848
-0.006623983383178711, -0.14084148406982422, -0.29701152515816454, 1791228401778566469
-0.2310328483581543, -0.03577667474746704, -0.314870359436355, 1791228401808636367
-0.06577432155609131, 0.1801782250404358, -0.29782426915875637, 1791228401838999712
0.17590653896331787, -0.14305025339126587, -0.28221587259195935, 1791228401871063688
-0.034626543521881104, -0.09668838977813721, -0.3022836897367026, 1791228401898785290
0.04835498332977295, 0.15840774774551392, -0.277580855182996, 1791228401928841404
-0.15989822149276733, 0.012462198734283447, -0.2960691237965747, 1791228401958825767
-0.13234776258468628, 0.017516016960144043, -0.326317686977239, 1791228401988051771
-0.13653725385665894, -0.14448773860931396, -0.3140248102021148, 1791228402018944948
-0.019437074661254883, -0.19278717041015625, -0.3095804761753954, 1791228402048054979
-0.09241807460784912, 0.3400055170059204, -0.26886238034316257, 1791228402079874525
-0.09053605794906616, -0.03868997097015381, -0.28046062407886174, 1791228402111190235
0.1267460584640503, -0.16411280632019043, -0.329435429493142, 1791228402139206214
-0.10848551988601685, 0.13556140661239624, -0.3017133174076273, 1791228402169760210
-0.0012305378913879395, -0.06652987003326416, -0.2873718552707725, 1791228402199756216
-0.28168952465057373, 0.07310855388641357, -0.268322649667241, 1791228402229801742
0.11321622133255005, -0.06580078601837158, -0.2772680630561309, 1791228402259772286
-0.17543315887451172, -0.032414913177490234, -0.3127590483880292, 1791228402289820710
0.16985583305358887, -0.03562706708908081, -0.3311454399882876, 1791228402319969287
-0.4586944580078125, -0.05716603994369507, -0.3128444111330893, 1791228402351629295
0.004904329776763916, -0.0751994252204895, -0.2887923986870061, 1791228402382279660
-0.03997480869293213, 0.0757485032081604, -0.2869270420681218, 1791228402409899435
0.250143826007843, -0.17517048120498657, -0.28587987863537967, 1791228402439826219
-0.21976512670516968, -0.019910335540771484, -0.290554273511143, 1791228402469920535
0.025822699069976807, 0.23766213655471802, -0.30318439406041936, 1791228402499929296
-0.09980463981628418, -0.1253243088722229, -0.3166123578492144, 1791228402529968192
0.0204850435256958, -0.23850369453430176, -0.3016560404785726, 1791228402559003266
0.11039936542510986, 0.19680535793304443, -0.2650182476315612, 1791228402591419849
-0.1205068826675415, 0.08530926704406738, -0.27915569738957263, 1791228402623431540
-0.07261228561401367, -0.10466200113296509, -0.32334918432225457, 1791228402650182386
0.46009767055511475, -0.027831733226776123, -0.311853851041584, 1791228402680069226
-0.355651319026947, -0.11133009195327759, -0.3143127968470399, 1791228402710090824
0.18494558334350586, 0.0695486068725586, -0.28473369361324574, 1791228402740083745
0.04795199632644653, -0.1081286072731018, -0.2885496331377425, 1791228402770152053
-0.09332054853439331, -0.05628609657287598, -0.30077818937873657, 1791228402800290394
0.10548537969589233, 0.1197008490562439, -0.2955628308598394, 1791228402831176657
-0.03546309471130371, -0.14975404739379883, -0.29305796423427044, 1791228402863613183
-0.22682034969329834, 0.017463743686676025, -0.3416518775572043, 1791228402890395556
0.011741876602172852, 0.2118270993232727, -0.2866183546108058, 1791228402920329843
0.1514713168144226, -0.15537536144256592, -0.3101939583430587, 1791228402950393209
-0.21863210201263428, -0.17155665159225464, -0.29783825545125, 1791228402980417528
-0.11862450838088989, 0.38997238874435425, -0.3050854357617894, 1791228403009503339
-0.031488776206970215, -0.09379547834396362, -0.2840871688594768, 1791228403040560242
0.5281429886817932, -0.14416909217834473, -0.28789051414256606, 1791228403071191807
-0.489033579826355, 0.06649923324584961, -0.2656723657164677, 1791228403103206653
-0.13201063871383667, 0.023273885250091553, -0.3192479882526739, 1791228403130832591
-0.04105764627456665, -0.03241485357284546, -0.30525019315467866, 1791228403160753521
-0.2489544153213501, 0.05621522665023804, -0.31405071808350526, 1791228403190828668
0.23084944486618042, -0.140194833278656, -0.29117208575667236, 1791228403220848987
0.09660303592681885, 0.06854790449142456, -0.27418051665464216, 1791228403250926339
-0.12111777067184448, -0.07709050178527832, -0.295279670868163, 1791228403280976094
-0.1717756986618042, -0.12473881244659424, -0.2988434992811947, 1791228403311626529
0.03132206201553345, 0.08543294668197632, -0.2810141203064657, 1791228403343202571
-0.12468647956848145, 0.0017969608306884766, -0.3148354653032894, 1791228403371176888
-0.2969428300857544, -0.09860813617706299, -0.2865337020491185, 1791228403401088962
-0.07243967056274414, 0.07451236248016357, -0.2819573385924449, 1791228403431283365
-0.09807038307189941, -0.09844201803207397, -0.28729611642565533, 1791228403461284157
-0.010099649429321289, 0.1890435814857483, -0.28933774153203135, 1791228403491453228
-0.051932334899902344, -0.031814515590667725, -0.3216284861289668, 1791228403520496924
0.05733537673950195, -0.18183976411819458, -0.30133093552078405, 1791228403551455535
0.1944754719734192, 0.12033116817474365, -0.272338652686619, 1791228403583239262
-0.039317429065704346, -0.1270543932914734, -0.30204561573574157, 1791228403613058769
-0.22823882102966309, -0.14973104000091553, -0.3215490150600833, 1791228403641497746
-0.20015835762023926, 0.1938658356666565, -0.3088682568742025, 1791228403671568002
-0.1002655029296875, 0.021603703498840332, -0.28256008169047475, 1791228403694076954
0.09479904174804688, -0.2556425929069519, -0.33187254443307695, 1791228403721775182
-0.03657728433609009, 0.15010082721710205, -0.2847905017842497, 1791228403751680908
-0.01875603199005127, -0.19972538948059082, -0.27525229486729347, 1791228403781756577
-0.22306162118911743, -0.08183664083480835, -0.27395849911461906, 1791228403811782189
0.09661781787872314, 0.12578827142715454, -0.2994153460607779, 1791228403841823162
-0.40503811836242676, -0.13145923614501953, -0.3267115809789788, 1791228403871889693
0.35910606384277344, -0.1316578984260559, -0.29031190433554777, 1791228403903350507
0.020447134971618652, 0.10945069789886475, -0.2705302830430438, 1791228403935561156
0.19588106870651245, -0.140400230884552, -0.3405426678945654, 1791228403962073635
-0.310518741607666, -0.05349642038345337, -0.30528064189755655, 1791228403992040029
-0.2631441354751587, 0.040933847427368164, -0.30695124571216326, 1791228404022094219
-0.18768596649169922, -0.04913526773452759, -0.2964909624594851, 1791228404052184664
0.1467779278755188, 0.1012192964553833, -0.2764792691303523, 1791228404082244116
0.1062391996383667, -0.16949200630187988, -0.27635603587335217, 1791228404112319284
0.009836673736572266, -0.20013201236724854, -0.2726319197844193, 1791228404143641150
-0.06084340810775757, 0.14303570985794067, -0.26465953054960645, 1791228404175279947
0.2978881597518921, -0.05177867412567139, -0.3597628155608291, 1791228404202534018
-0.1456034779548645, -0.29779642820358276, -0.3500144389182714, 1791228404242498348
0.027233600616455078, 0.13282227516174316, -0.3091594884218716, 1791228404272573833
-0.1339350938796997, -0.00847470760345459, -0.2795226024950915, 1791228404303540670
-0.04229295253753662, -0.04402422904968262, -0.26132633419719287, 1791228404335768953
-0.263058066368103, -0.02731376886367798, -0.33131202013900074, 1791228404362787867
-0.009896934032440186, -0.1918526291847229, -0.3135843785464546, 1791228404392695764
0.19304752349853516, 0.14590585231781006, -0.3034763987860025, 1791228404422824772
0.016816675662994385, -0.06835508346557617, -0.2971532016774442, 1791228404452791313
0.0641985535621643, -0.10846138000488281, -0.28857093842551546, 1791228404482864001
-0.28985530138015747, 0.1878492832183838, -0.2844568166129342, 1791228404512936549
0.14578598737716675, -0.3763160705566406, -0.2804071547705997, 1791228404543503616
-0.19011521339416504, -0.03967636823654175, -0.30036662927251623, 1791228404575238616
0.36578524112701416, 0.255288302898407, -0.3538675851391382, 1791228404603200744
-0.31510037183761597, -0.29443252086639404, -0.31501455631866976, 1791228404633114652
0.09634560346603394, -0.18396151065826416, -0.23935978813761916, 1791228404656539628
-0.3489518165588379, 0.3741529583930969, -0.3092594715529875, 1791228404693235077
0.15197288990020752, -0.14199411869049072, -0.2941273420726231, 1791228404723282415
0.07455164194107056, -0.11839884519577026, -0.3065288207990472, 1791228404753441948
-0.03332418203353882, 0.004463493824005127, -0.30778952791826586, 1791228404783671093
-0.16706132888793945, -0.1321966052055359, -0.27433237206803557, 1791228404815613392
0.0011486411094665527, 0.058702707290649414, -0.2794551310699399, 1791228404845695342
-0.38628560304641724, -0.10101848840713501, -0.3061333219397928, 1791228404873585849
0.21590030193328857, -0.13060599565505981, -0.3008021217363478, 1791228404903755348
-0.009043574333190918, 0.17803406715393066, -0.31124987020020817, 1791228404933726069
0.3945158123970032, -0.17208141088485718, -0.3045867297247478, 1791228404963859171
-0.32832860946655273, -0.10161441564559937, -0.2760181353001643, 1791228404993696229
-0.05954033136367798, 0.20784276723861694, -0.2839305471660306, 1791228405023844437
-0.2080661654472351, -0.12993264198303223, -0.2919467839432897, 1791228405055584126
-0.1527637243270874, 0.05645644664764404, -0.2998428102743944, 1791228405086733465
0.006319880485534668, -0.04271119832992554, -0.3233150118273271, 1791228405113933055
-0.031664252281188965, -0.20567739009857178, -0.27523953335715035, 1791228405144262294
0.23085284233093262, 0.24478459358215332, -0.29587009203537395, 1791228405173014722
-0.14841961860656738, -0.2230023741722107, -0.2813469002849646, 1791228405204100947
0.01451033353805542, -0.1137537956237793, -0.3003074856584571, 1791228405234215391
-0.3130955100059509, 0.2436894178390503, -0.2867842689734077, 1791228405264837304
0.14304441213607788, -0.2616153359413147, -0.304611654869518, 1791228405295711698
-0.10216480493545532, -0.27257072925567627, -0.27798337512573945, 1791228405327493752
0.7163522243499756, 0.32972365617752075, -0.3027332731955864, 1791228405354879751
-0.5945969820022583, -0.05575251579284668, -0.29751561795653786, 1791228405383978435
-0.12866508960723877, -0.19994455575942993, -0.2867412866970265, 1791228405414942628
-0.019731104373931885, 0.09809494018554688, -0.3135979876257612, 1791228405444967823
-0.06014519929885864, -0.13001346588134766, -0.30822794339972726, 1791228405474924485
-0.16551345586776733, -0.09546792507171631, -0.28642406100410844, 1791228405503991092
-0.06960755586624146, -0.04053318500518799, -0.2721538662692217, 1791228405535339163
0.0029331445693969727, -0.018995046615600586, -0.2959473692674453, 1791228405567587039
0.08154070377349854, -0.052981674671173096, -0.3341629743015038, 1791228405594775555
-0.0035050511360168457, -0.00977712869644165, -0.2948769924723262, 1791228405624756833
-0.03497672080993652, -0.13628578186035156, -0.3029921533241508, 1791228405654844366
-0.16332709789276123, -0.018734753131866455, -0.3045937955692835, 1791228405684875202
-0.27729475498199463, -0.1294974684715271, -0.2981783615271667, 1791228405714920265
-0.017492711544036865, -0.08888065814971924, -0.27805804561115555, 1791228405744941756
-0.04553490877151489, 0.26208680868148804, -0.283396920069402, 1791228405775744369
0.1890682578086853, -0.09387248754501343, -0.29553444623743513, 1791228405806991046
0.10325944423675537, -0.17624366283416748, -0.31713607145669415, 1791228405835174886
-0.0642843246459961, 0.036499083042144775, -0.28594186328596854, 1791228405865136661
-0.20272958278656006, -0.07014673948287964, -0.29063592511131897, 1791228405895148987
0.028451740741729736, -0.06367415189743042, -0.29844060252865856, 1791228405925218812
-0.010884106159210205, -0.0035783052444458008, -0.3188029805774612, 1791228405955299096
0.006602823734283447, -0.1050758957862854, -0.31086827532617933, 1791228405985296040
0.19146794080734253, -0.04171174764633179, -0.2811607110112033, 1791228406015383980
-0.35667216777801514, 0.049141108989715576, -0.27577384222479534, 1791228406047559803
0.11597585678100586, -0.17768794298171997, -0.3096732249149726, 1791228406075524151
0.10368019342422485, 0.1801999807357788, -0.31130064329594004, 1791228406105532149
0.04865795373916626, -0.19100290536880493, -0.3364350289496161, 1791228406135588106
-0.3249237537384033, -0.19785213470458984, -0.30832155079894125, 1791228406165621356
0.2993658781051636, 0.2204275131225586, -0.274319283934259, 1791228406195767167
-0.3095839023590088, -0.14574944972991943, -0.2916679794172384, 1791228406225714758
0.245618999004364, -0.2525961995124817, -0.28131907392384126, 1791228406255867144
-0.15769058465957642, 0.31432586908340454, -0.2876191282834283, 1791228406287933213
0.013127446174621582, -0.05650383234024048, -0.3225170300561294, 1791228406318674981
0.17715030908584595, -0.059815824031829834, -0.3183045739835867, 1791228406346215207
-0.18318355083465576, -0.12596619129180908, -0.28903327381902383, 1791228406375947950
-0.16233354806900024, -0.0941362977027893, -0.29605761417827003, 1791228406405005848
0.15991920232772827, 0.10334229469299316, -0.27555035701270486, 1791228406436032538
-0.036406755447387695, -0.15087461471557617, -0.3176616463815205, 1791228406466102934
0.020718812942504883, -0.19809722900390625, -0.32017209271204916, 1791228406496163993
-0.2583807110786438, 0.15165770053863525, -0.27611767104578816, 1791228406527622552
-0.13663381338119507, -0.14628076553344727, -0.26971198408183156, 1791228406559282038
-0.2909701466560364, -0.07500594854354858, -0.3111550718282636, 1791228406586364900
0.15898233652114868, 0.13284742832183838, -0.2943856398317816, 1791228406616342599
-0.07233661413192749, -0.09854662418365479, -0.331312822668071, 1791228406646408413
0.0632275938987732, -0.15102434158325195, -0.3103955558634751, 1791228406676450408
0.21346312761306763, 0.015089869499206543, -0.2741609723042622, 1791228406706723852
-0.03834223747253418, -0.14988678693771362, -0.2874144317796237, 1791228406736559570
0.04936295747756958, 0.02422875165939331, -0.2681829775873232, 1791228406768562140
-0.3345196843147278, -0.03498798608779907, -0.2795697187368814, 1791228406799520720
0.21306079626083374, -0.1649380922317505, -0.3393046000342016, 1791228406826787650
-0.058576762676239014, 0.1353655457496643, -0.32478217645396956, 1791228406856717762
0.3852423429489136, -0.17413103580474854, -0.2999769217974174, 1791228406886746452
-0.3323163390159607, -0.2765800952911377, -0.2795915124983388, 1791228406916840100
-0.04020512104034424, 0.2759256958961487, -0.269886526263222, 1791228406946849788
-0.33522576093673706, -0.08954733610153198, -0.28420491541162307, 1791228406976914458
0.3549480438232422, -0.1959579586982727, -0.32055283240236815, 1791228407007563602
0.10561978816986084, 0.11246544122695923, -0.29401708645557906, 1791228407039698987
0.0038295388221740723, -0.06125146150588989, -0.3071595310850149, 1791228407067155174
-0.05127882957458496, -0.06791436672210693, -0.28493793034376946, 1791228407097126855
-0.10020977258682251, 0.021765947341918945, -0.30516320407543973, 1791228407127162947
-0.0686110258102417, -0.2410297989845276, -0.30228282316613997, 1791228407157253548
0.11554181575775146, 0.1030535101890564, -0.2913519820176929, 1791228407187293421
-0.23331671953201294, 0.005671560764312744, -0.2849312353177658, 1791228407217538158
0.3274701237678528, -0.25835496187210083, -0.28625310321080244, 1791228407247579224
-0.13334625959396362, 0.0024982094764709473, -0.2702543203417945, 1791228407279883915
0.025038301944732666, 0.07686352729797363, -0.3160409311250328, 1791228407309556630
-0.13991641998291016, -0.24629324674606323, -0.3422440156796633, 1791228407347511988
0.017898976802825928, -0.03483939170837402, -0.30251316188509947, 1791228407377802277
-0.12634730339050293, -0.06926935911178589, -0.2787365613594417, 1791228407408321273
0.1855616569519043, -0.11996811628341675, -0.2528618089406562, 1791228407439700973
-0.1229931116104126, 0.17594999074935913, -0.2885272221057621, 1791228407470568379
-0.06683826446533203, -0.10286617279052734, -0.3470346870213904, 1791228407497790498
0.1884332299232483, -0.021785736083984375, -0.306421786968323, 1791228407527790186
-0.19201380014419556, -0.22422313690185547, -0.3033839616087108, 1791228407557895868
-0.05702018737792969, -0.1684456467628479, -0.2807136988134665, 1791228407587957769
-0.04675847291946411, 0.2417072057723999, -0.28687691061979304, 1791228407616995173
0.2969803214073181, 0.045772552490234375, -0.31342020924476294, 1791228407648063526
-0.5352358818054199, -0.3567693829536438, -0.32248583785691654, 1791228407679455838
0.10519808530807495, 0.19130265712738037, -0.3004685334556918, 1791228407711607772
-0.23129987716674805, -0.008614599704742432, -0.31168675169794324, 1791228407738491109
0.4058228135108948, 0.04261589050292969, -0.27776880802910037, 1791228407768262448
0.19406819343566895, -0.030055224895477295, -0.250280256465365, 1791228407791355157
-0.15950846672058105, -0.1609075665473938, -0.33439008249827235, 1791228407828296288
0.027986645698547363, 0.15169447660446167, -0.29777475440560996, 1791228407858351305
-0.06220477819442749, -0.15453732013702393, -0.3042065176521966, 1791228407888391714
0.02682197093963623, -0.25701671838760376, -0.2806185883082096, 1791228407919955119
0.12486261129379272, 0.232668936252594, -0.2677732436292091, 1791228407951425243
-0.2590239644050598, -0.10080075263977051, -0.3118332707752388, 1791228407978717439
0.28357577323913574, -0.152887761592865, -0.29732978727053083, 1791228408008569063
-0.31620365381240845, 0.22639191150665283, -0.312527360497031, 1791228408038653152
0.33154237270355225, -0.2610672116279602, -0.3069836273444847, 1791228408068750974
0.1217537522315979, -0.2743798494338989, -0.2766663500342932, 1791228408098809587
-0.01628643274307251, 0.2881479859352112, -0.2852853084103595, 1791228408128943955
0.021267831325531006, -0.08520525693893433, -0.2954785091285512, 1791228408159603808
-0.0605088472366333, -0.14054983854293823, -0.2986189963435801, 1791228408191702250
-0.316864550113678, 0.1289997100830078, -0.3389054997935516, 1791228408219401274
-0.058193325996398926, -0.10849899053573608, -0.29579798762185233, 1791228408249111085
0.07294803857803345, 0.003255307674407959, -0.2892923834540761, 1791228408279126158
-0.06988346576690674, -0.13085323572158813, -0.29719163071519944, 1791228408309164761
-0.15933072566986084, -0.05308341979980469, -0.2904379498775362, 1791228408339208832
-0.1052122712135315, 0.036238908767700195, -0.2971193448255731, 1791228408369221091
0.6012494564056396, -0.11760848760604858, -0.30813554062397996, 1791228408400026048
-0.31532812118530273, -0.1714688539505005, -0.282628427470978, 1791228408431886328
-0.11322671175003052, 0.11820876598358154, -0.31239781122068, 1791228408459387099
-0.01700007915496826, -0.13326513767242432, -0.2816642986136304, 1791228408490025676
-0.15357846021652222, -0.008750498294830322, -0.29293307599495677, 1791228408520042088
-0.12243300676345825, 0.15203791856765747, -0.3163073351471071, 1791228408550059797
-0.2610499858856201, -0.1819654107093811, -0.32887567203369916, 1791228408570381156
0.1890227198600769, -0.09996849298477173, -0.29904983030439936, 1791228408610112910
-0.024235010147094727, 0.0739438533782959, -0.27397772532122133, 1791228408640351466
-0.20174944400787354, -0.11342108249664307, -0.2726146039525002, 1791228408671696984
-0.048377811908721924, 0.00881814956665039, -0.28624873535845485, 1791228408702320346
-0.11151427030563354, -0.1473734974861145, -0.3394648181143123, 1791228408730302878
-0.056398212909698486, -0.22187328338623047, -0.2980952279275286, 1791228408760149570
0.22992658615112305, 0.08835119009017944, -0.2673665928295506, 1791228408790246811
-0.4231529235839844, -0.09296339750289917, -0.2871628177290328, 1791228408820225653
-0.03306591510772705, -0.24011343717575073, -0.28095771023905863, 1791228408850421037
-0.14893275499343872, 0.17178934812545776, -0.2976675813793784, 1791228408880257298
0.04208797216415405, -0.09947532415390015, -0.31303221762491096, 1791228408911500975
-0.1441604495048523, -0.2671405076980591, -0.2875360300372445, 1791228408943376761
0.27850496768951416, 0.03694993257522583, -0.30860256021035987, 1791228408970382764
0.1064501404762268, -0.024479985237121582, -0.3069218507895108, 1791228409000343199
-0.08458983898162842, -0.1186479926109314, -0.31014857776871324, 1791228409030429194
-0.07057654857635498, 0.05310678482055664, -0.3091302258772869, 1791228409060418235
-0.2724692225456238, -0.058756470680236816, -0.28757344246741345, 1791228409090535691
0.27473920583724976, -0.17225313186645508, -0.25758592930926094, 1791228409120490402
-0.01077491044998169, -0.11773598194122314, -0.264215734110926, 1791228409151516359
-0.11249667406082153, -0.24364161491394043, -0.27448098523485526, 1791228409183503673
-0.6614199280738831, 0.2843262553215027, -0.33184518134715885, 1791228409210855458
0.18831825256347656, -0.14519774913787842, -0.3225549384994535, 1791228409240677879
-0.1334761381149292, -0.2881253957748413, -0.33370048950396886, 1791228409270670318
0.15196365118026733, 0.1318841576576233, -0.29609410929177654, 1791228409300702118
-0.29683077335357666, -0.03802502155303955, -0.29498804857196953, 1791228409330775073
-0.003506302833557129, -0.03308510780334473, -0.3011782475701366, 1791228409360792611
-0.16325807571411133, -0.05803632736206055, -0.3079654813224843, 1791228409390951832
-0.15629231929779053, -0.10437387228012085, -0.2787696897125279, 1791228409423772689
0.2924165725708008, 0.007540643215179443, -0.3213172054809712, 1791228409450974272
0.0046059489250183105, -0.23679548501968384, -0.3030208913238008, 1791228409480956968
0.05801182985305786, -0.2665237784385681, -0.2897500804907796, 1791228409511067099
0.19028913974761963, 0.30238187313079834, -0.29419034049360143, 1791228409541074579
-0.5762324929237366, -0.1264742612838745, -0.31195612177638765, 1791228409571167763
0.05206519365310669, -0.13557904958724976, -0.3107533582780741, 1791228409601174721
0.07794886827468872, 0.1702982783317566, -0.2913057501009728, 1791228409631595125
-0.035095810890197754, -0.37969619035720825, -0.27122804712888476, 1791228409664370049
-0.009179890155792236, -0.19311636686325073, -0.3145896676891007, 1791228409691413241
-0.04875248670578003, 0.3745676875114441, -0.29040266572009954, 1791228409721546227
0.05294162034988403, -0.1686723232269287, -0.31095936525748363, 1791228409751466092
0.08782070875167847, -0.1445944905281067, -0.2994860025296085, 1791228409781466806
0.10460329055786133, 0.06899303197860718, -0.2905423795884301, 1791228409811534085
-0.23276430368423462, -0.10966497659683228, -0.2965217382687053, 1791228409841550462
0.08016800880432129, -0.03364920616149902, -0.2842327922271268, 1791228409872059124
-0.26807737350463867, -0.021896302700042725, -0.27522417260035037, 1791228409904060946
0.5799241662025452, -0.1759456992149353, -0.2880195245175529, 1791228409934073973
-0.3377237915992737, 0.09170800447463989, -0.30652380275809654, 1791228409961734916
0.21995562314987183, -0.1475622057914734, -0.3099739854180044, 1791228409991817318
-0.12992507219314575, -0.29834067821502686, -0.3155331181460123, 1791228410020847970
0.1578267216682434, 0.21235591173171997, -0.2760840959941816, 1791228410051914309
-0.060335636138916016, -0.01836031675338745, -0.30339913836930116, 1791228410081949621
0.04612851142883301, -0.23994308710098267, -0.3123486577445223, 1791228410112092072
-0.04519236087799072, -0.01269620656967163, -0.28145357716476876, 1791228410143848160
0.06791746616363525, -0.08178168535232544, -0.28150712720810944, 1791228410175337943
-0.07828778028488159, -0.026813745498657227, -0.3183753545367687, 1791228410202254737
-0.06721347570419312, 0.1312353014945984, -0.29210800484488403, 1791228410232228056
-0.04562842845916748, -0.13462382555007935, -0.2766735748744892, 1791228410255498693
-0.14978837966918945, -0.22444385290145874, -0.3581944574270099, 1791228410282387853
0.20577633380889893, 0.06415742635726929, -0.2885797087261902, 1791228410312328413
-0.30669039487838745, -0.08586108684539795, -0.28993801153191023, 1791228410342330703
0.04037308692932129, -0.05321061611175537, -0.2988998778448674, 1791228410372410889
-0.052295565605163574, 0.05823773145675659, -0.29990575986502854, 1791228410402437916
0.03900885581970215, -0.130060613155365, -0.30218623069366507, 1791228410432540530
-0.012358665466308594, 0.046457111835479736, -0.291707609241376, 1791228410463597792
0.04844099283218384, -0.1596561074256897, -0.28226050702336397, 1791228410495560629
-0.02600175142288208, -0.23418503999710083, -0.3238425715536854, 1791228410522860852
0.1937447190284729, 0.17137837409973145, -0.2927419335227817, 1791228410552773225
0.12503045797348022, -0.1391834020614624, -0.29026130756410023, 1791228410582965363
-0.1654241681098938, -0.07988369464874268, -0.2992941304862837, 1791228410613033215
0.23822623491287231, -0.01955592632293701, -0.29728626152321525, 1791228410641880415
-0.04436826705932617, -0.08733832836151123, -0.2894321951600227, 1791228410672973112
0.3281770944595337, -0.1978750228881836, -0.2821044223803055, 1791228410703553093
-0.6376733779907227, 0.11600315570831299, -0.27822724522970893, 1791228410734993399
-0.011002302169799805, 0.11146646738052368, -0.32865882611344843, 1791228410763160887
-0.18206536769866943, -0.06283396482467651, -0.2991966711288393, 1791228410793155949
0.5927431583404541, -0.2392318844795227, -0.29789600332085253, 1791228410823145254
-0.21488964557647705, -0.29419469833374023, -0.2766697776407491, 1791228410853333517
0.043008267879486084, 0.2638213634490967, -0.2828015927987021, 1791228410883230822
-0.24135607481002808, -0.1329231858253479, -0.2980856425196403, 1791228410913339366
-0.02484792470932007, -0.2664412260055542, -0.30923205344058735, 1791228410943582576
0.3243008852005005, 0.11027663946151733, -0.2851490689088869, 1791228410975740918
0.13907146453857422, 0.005337774753570557, -0.3361616314860387, 1791228411003496731
0.011565804481506348, -0.3951945900917053, -0.27798340840882263, 1791228411033507511
0.3781435489654541, 0.15047204494476318, -0.291516191946597, 1791228411063548037
-0.40610063076019287, -0.048614501953125, -0.31067754133027925, 1791228411093664390
-0.1637858748435974, -0.04579681158065796, -0.31256902588367363, 1791228411123665814
0.1235724687576294, -0.0028644800186157227, -0.32416862214889647, 1791228411153757182
0.07170230150222778, -0.1766466498374939, -0.3190190018996171, 1791228411184383480
0.17895936965942383, -0.10672634840011597, -0.2704279655154445, 1791228411216121641
-0.09262925386428833, -0.0020328164100646973, -0.28604782341394736, 1791228411246546278
-0.2893974781036377, 0.06564056873321533, -0.3262085520509026, 1791228411273553582
0.04634857177734375, 0.04619407653808594, -0.2961522817831809, 1791228411303956635
0.19309478998184204, -0.2555946111679077, -0.33256823559732424, 1791228411332987937
-0.10912269353866577, -0.16637718677520752, -0.2872460575760793, 1791228411364046624
-0.05212515592575073, 0.24422723054885864, -0.26106921116275844, 1791228411394128855
-0.23613280057907104, -0.22214984893798828, -0.27104593141345756, 1791228411424155764
0.6390067338943481, -0.15229380130767822, -0.2827827873182569, 1791228411455644340
-0.43621671199798584, 0.28812772035598755, -0.2917147584283111, 1791228411487673042
0.5271580815315247, -0.18221628665924072, -0.35575430463693053, 1791228411514467723
-0.0382610559463501, -0.15383028984069824, -0.2998088092732236, 1791228411544365884
-0.07957369089126587, 0.14203548431396484, -0.23538397597445956, 1791228411568224317
-0.2036128044128418, -0.2031269669532776, -0.3227841793602351, 1791228411604489747
0.15533983707427979, -0.13143843412399292, -0.2883911643056338, 1791228411634504684
-0.049249112606048584, 0.1561080813407898, -0.3054069431993292, 1791228411664585579
0.1598476767539978, -0.16175132989883423, -0.2966817938748525, 1791228411696035557
0.051115453243255615, -0.1235315203666687, -0.2693314923751523, 1791228411727740976
0.0520939826965332, -0.056039392948150635, -0.31665419837711795, 1791228411754710779
-0.18104231357574463, -0.09997367858886719, -0.2926019549683915, 1791228411784840760
-0.23286855220794678, 0.16037791967391968, -0.3011516940694818, 1791228411814804942
0.031777143478393555, -0.1357795000076294, -0.32290235834455294, 1791228411844815628
0.0407901406288147, -0.22447842359542847, -0.3083891177635984, 1791228411874845351
0.19472450017929077, 0.2191738486289978, -0.2907672469233504, 1791228411904982347
-0.11192923784255981, -0.08387523889541626, -0.2879342629977141, 1791228411935668006
-0.056829988956451416, -0.13017159700393677, -0.2698073527884439, 1791228411967929273
-0.22224831581115723, -0.1085212230682373, -0.33190813286663545, 1791228411995434065
0.023676574230194092, -0.1768600344657898, -0.31498832330775023, 1791228412025223031
0.13262683153152466, 0.09203624725341797, -0.30078762213403565, 1791228412055431214
0.051752686500549316, -0.17987781763076782, -0.3050930027597067, 1791228412085336219
0.16637396812438965, -0.22865784168243408, -0.2912494048190827, 1791228412115295068
-0.1844763159751892, 0.34602171182632446, -0.2934981223752777, 1791228412145363776
-0.23083096742630005, -0.1269230842590332, -0.3130091813547039, 1791228412175729122
0.35673391819000244, -0.17091971635818481, -0.28866124849486574, 1791228412208241215
-0.10930919647216797, 0.15493786334991455, -0.32020233339675475, 1791228412235539122
-0.2572669982910156, -0.12254589796066284, -0.2972464889722018, 1791228412265531613
0.14765924215316772, -0.22146183252334595, -0.27464736423494845, 1791228412295538487
-0.004873991012573242, 0.1992892622947693, -0.28906434403558434, 1791228412325578015
-0.09406310319900513, -0.05354166030883789, -0.319703591165132, 1791228412355642882
-0.1117091178894043, -0.19199329614639282, -0.31408004922749033, 1791228412385699896
0.08821254968643188, -0.02468430995941162, -0.29066614634620586, 1791228412415806426
-0.0656057596206665, 0.04533028602600098, -0.2608730779148113, 1791228412448295263
0.025416553020477295, 0.029985487461090088, -0.2773342755268393, 1791228412477861876
0.1912289261817932, -0.1708005666732788, -0.31960293047938354, 1791228412504994708
0.06535714864730835, -0.14967972040176392, -0.2889168782217849, 1791228412535966347
0.0895037055015564, 0.09809517860412598, -0.28778467363695964, 1791228412565008842
0.28924787044525146, -0.1900794506072998, -0.28406219581648695, 1791228412596144332
-0.39866548776626587, -0.16803276538848877, -0.3032050620506477, 1791228412626107953
0.1564338207244873, 0.24824780225753784, -0.2884470515934191, 1791228412656337782
-0.1989525556564331, -0.0024964213371276855, -0.31259465652809487, 1791228412687816031
0.06318676471710205, -0.1739577054977417, -0.30797136857583635, 1791228412719216008
0.06411242485046387, 0.1537647247314453, -0.32169272691224365, 1791228412746401917
0.12513864040374756, -0.12371975183486938, -0.3048243472277595, 1791228412776332967
0.11215931177139282, -0.09277760982513428, -0.297401379482036, 1791228412806403223
0.09327292442321777, 0.1379532814025879, -0.29468229598392676, 1791228412836416531
-0.008036673069000244, -0.0881536602973938, -0.30859714570194385, 1791228412866461924
-0.17356610298156738, -0.013516604900360107, -0.3049565744955123, 1791228412896515222
0.239307701587677, -0.22179526090621948, -0.28299195083972833, 1791228412927832012
0.01972121000289917, -0.10977965593338013, -0.28034182586289574, 1791228412959690508
0.4383600950241089, 0.17485827207565308, -0.33003404939770525, 1791228412986809446
-0.44442087411880493, -0.0697430968284607, -0.3160578532971373, 1791228413016738469
0.17728334665298462, -0.13324981927871704, -0.30593063544422994, 1791228413046788417
-0.26650428771972656, 0.18247920274734497, -0.2889277536037346, 1791228413076813716
0.44827646017074585, -0.1535314917564392, -0.27999225149494755, 1791228413107067669
-0.051615238189697266, -0.13836944103240967, -0.28684742367674376, 1791228413136945798
0.003724992275238037, 0.16233223676681519, -0.2845274221367855, 1791228413168301019
-0.008648097515106201, -0.07814794778823853, -0.2983658440922627, 1791228413198718840
0.024522781372070312, -0.07262766361236572, -0.31798043613607957, 1791228413227173655
-0.0117417573928833, 0.03793764114379883, -0.2959720357092439, 1791228413257117029
0.044701993465423584, -0.2242782711982727, -0.28617632764649564, 1791228413287174401
0.020350933074951172, -0.024301350116729736, -0.283987153173836, 1791228413317188255
0.10687977075576782, 0.057433485984802246, -0.30387399388151587, 1791228413347269116
-0.1610979437828064, -0.10903042554855347, -0.2986008481939617, 1791228413377376269
0.12284719944000244, 0.20031285285949707, -0.29163658697189965, 1791228413407912402
-0.16524600982666016, -0.21728754043579102, -0.28032787889404, 1791228413439813503
-0.017193853855133057, -0.15497493743896484, -0.3103365561735208, 1791228413467687156
-0.012762904167175293, 0.17933052778244019, -0.2926005986969838, 1791228413497506185
-0.05660891532897949, 0.00839531421661377, -0.3046620844556911, 1791228413527575324
0.0226285457611084, 0.002669394016265869, -0.3044206869970824, 1791228413557612820
0.1069328784942627, -0.024236440658569336, -0.30377914039674986, 1791228413587712133
0.06247001886367798, -0.23711401224136353, -0.2943087163190304, 1791228413617972942
-0.16602587699890137, 0.1243639588356018, -0.2894667103900138, 1791228413647836479
0.018156468868255615, -0.12037670612335205, -0.2735328105339007, 1791228413680472083
-0.08232450485229492, -0.2565101981163025, -0.3075572357693304, 1791228413710060303
0.5002902150154114, 0.11463266611099243, -0.31734594382596026, 1791228413747928313
-0.3295297622680664, -0.0935468077659607, -0.31075298745860036, 1791228413776987270
0.4206201434135437, -0.14325755834579468, -0.27213138100613604, 1791228413808501118
-0.21198701858520508, -0.0769079327583313, -0.2895636184634063, 1791228413839036686
0.2259349822998047, 0.024214327335357666, -0.28357745008722907, 1791228413871286567
-0.14569664001464844, 0.24268102645874023, -0.3232754811410357, 1791228413908172475
0.04790610074996948, -0.09300082921981812, -0.3137399150795874, 1791228413938216779
0.003244638442993164, -0.2674877643585205, -0.2975556689599426, 1791228413968329365
-0.13314473628997803, 0.1576552391052246, -0.2657941800345131, 1791228414000177738
0.03378653526306152, 0.06484663486480713, -0.29013630032657445, 1791228414031840169
-0.06877493858337402, -0.06613987684249878, -0.3717487757337984, 1791228414058521510
-0.09544354677200317, 0.04687255620956421, -0.3189469773679888, 1791228414088503852
0.4231920838356018, -0.13696825504302979, -0.27288217981698737, 1791228414118557188
-0.3044857382774353, 0.006243467330932617, -0.2614549192902431, 1791228414148573978
0.04071080684661865, -0.16611433029174805, -0.2748069505046113, 1791228414178626428
-0.14107125997543335, -0.013326466083526611, -0.30851359242700643, 1791228414208731817
-0.02573239803314209, 0.10110801458358765, -0.293808535076891, 1791228414240091390
-0.07328236103057861, -0.03772395849227905, -0.295484135089149, 1791228414271763129
0.14631342887878418, -0.14775359630584717, -0.32482278486441607, 1791228414298903962
0.15434086322784424, 0.22218185663223267, -0.2862672817296728, 1791228414328837514
-0.2246866226196289, -0.11221015453338623, -0.2588613524652021, 1791228414352035938
-0.06577110290527344, -0.06185966730117798, -0.34566874875565917, 1791228414378060785
0.09696727991104126, 0.22720777988433838, -0.29143045835031284, 1791228414409126737
-0.21920543909072876, 0.012764811515808105, -0.31841656165507204, 1791228414439159854
0.034833431243896484, -0.28644365072250366, -0.2970157512694994, 1791228414469204185
0.6487942337989807, 0.12335246801376343, -0.28009469246333024, 1791228414499204346
-0.202531635761261, -0.17415457963943481, -0.2864082687949636, 1791228414529240235
-0.5865486860275269, 0.08682692050933838, -0.2935696938301347, 1791228414559899573
0.2302451729774475, 0.19676202535629272, -0.29999225454885564, 1791228414592027781
-0.14840930700302124, -0.20179909467697144, -0.35825453183478195, 1791228414619430610
0.4916498064994812, -0.22910362482070923, -0.2880542126811801, 1791228414649410475
-0.015968799591064453, 0.28217536211013794, -0.2925755207647862, 1791228414679483624
-0.02125692367553711, -0.06957250833511353, -0.30089239665816725, 1791228414709539531
0.06684046983718872, -0.16382884979248047, -0.29190395865684743, 1791228414739628241
-0.265344500541687, 0.02077162265777588, -0.3135206443807646, 1791228414769689268
0.03880077600479126, -0.03097844123840332, -0.3015829735469076, 1791228414800087985
-0.004286646842956543, 0.14412355422973633, -0.26336465136808873, 1791228414832259279
0.2570732831954956, -0.2556194067001343, -0.32295502154717587, 1791228414859901501
0.027425527572631836, -0.23873531818389893, -0.2937981241697889, 1791228414890487176
-0.10353207588195801, 0.4037109613418579, -0.3041241714724142, 1791228414920374574
0.12923383712768555, -0.06036776304244995, -0.31215678508925615, 1791228414950434707
0.09724164009094238, -0.22412562370300293, -0.28799699978907733, 1791228414980400074
0.3306090831756592, 0.2100263237953186, -0.2842745253393038, 1791228415010499546
-0.08311831951141357, -0.11640143394470215, -0.29660372892826137, 1791228415040435529
-0.10789310932159424, -0.027023017406463623, -0.28092993611052003, 1791228415071775348
0.0930061936378479, -0.18354451656341553, -0.28429433235173984, 1791228415101956999
-0.18423616886138916, 0.04789865016937256, -0.33757899861888824, 1791228415130554748
0.2680578827857971, -0.008048832416534424, -0.29754924265857696, 1791228415160496737
-0.1568959355354309, 0.013938963413238525, -0.2896689521735604, 1791228415190568836
0.019962608814239502, -0.10774272680282593, -0.28737666044984167, 1791228415220523928
0.18590837717056274, 0.36200839281082153, -0.2849745306137066, 1791228415250619908
0.16519683599472046, -0.25160014629364014, -0.29049862451123576, 1791228415280690879
-0.39232611656188965, -0.2314138412475586, -0.3047672745352081, 1791228415311794422
0.013756990432739258, 0.2392120361328125, -0.27561600483030635, 1791228415344368822
-0.08035534620285034, -0.24873846769332886, -0.3164971911896947, 1791228415370762738
0.3412564992904663, -0.022175908088684082, -0.298228390790752, 1791228415400696968
-0.23701411485671997, 0.2562780976295471, -0.2970822748370037, 1791228415430749970
-0.09550732374191284, -0.0013547539710998535, -0.3102337255818733, 1791228415460719056
0.15235406160354614, -0.027892887592315674, -0.30202520899150515, 1791228415490775307
-0.13758987188339233, -0.06887608766555786, -0.29376446068325385, 1791228415520795801
