acc_x, acc_y, angular_z, stamp, 
-0.01714116334915161, 0.008162200450897217, -9.026323378703405e-11, 1791228703469915440
0.005740165710449219, 0.0062593817710876465, -1.4541141855010195e-11, 1791228703589587416
-0.016033291816711426, 0.0007592439651489258, 4.8687450487447166e-11, 1791228703649590563
-0.005245864391326904, -0.02073460817337036, 6.153629341360884e-11, 1791228703679614303
-0.007050156593322754, -0.004614293575286865, 5.6117701396771165e-11, 1791228703710224545
-0.010677218437194824, 0.006181538105010986, 2.659273661990745e-11, 1791228703741963240
5.4836273193359375e-05, 0.011538207530975342, 7.421336770258932e-11, 1791228703770187682
0.03387022018432617, 0.014974892139434814, 3.772991469562833e-11, 1791228703799681134
-0.011408984661102295, -0.0032425522804260254, 1.4855459132162162e-11, 1791228703829722300
-0.01166623830795288, 0.02529364824295044, -2.4201771259529012e-11, 1791228703859811728
0.03300440311431885, 0.006900966167449951, -1.3105292100502833e-10, 1791228703889956301
0.012802302837371826, -0.009700477123260498, -3.130475094369856e-10, 1791228703919825745
0.012261629104614258, -0.00984102487564087, -5.354087361670207e-10, 1791228703950620482
-0.013321876525878906, -0.015224039554595947, -6.461860496171838e-10, 1791228703982342905
-0.009935081005096436, -0.00972682237625122, -6.538248593048513e-10, 1791228704010096502
0.009916901588439941, -0.005910992622375488, -4.695753497053409e-10, 1791228704040885764
-0.011700689792633057, -0.009346485137939453, -3.7253014641497033e-10, 1791228704070371658
0.009836733341217041, -0.021683692932128906, -8.033549686566864e-11, 1791228704090386959
-0.002702176570892334, -0.023077547550201416, -2.5965736130951505e-11, 1791228704120064343
-0.0025844573974609375, 0.0006856322288513184, 2.8175601388425826e-10, 1791228704150210112
0.006458163261413574, 0.0026451945304870605, 2.2566122527413885e-10, 1791228704173213615
0.02953660488128662, -0.0025352835655212402, -8.065296849951737e-07, 1791228704210136618
-0.017503798007965088, -0.000735938549041748, 4.728666783853579e-10, 1791228704240229232
-0.02812516689300537, 0.015516281127929688, 5.809314742470681e-10, 1791228704270369687
0.004526078701019287, 0.022641539573669434, 3.8799134890960606e-10, 1791228704302059790
0.015333414077758789, 0.008188486099243164, 2.349327373556588e-10, 1791228704333296359
-0.013500571250915527, -0.009614109992980957, 4.0796488279957725e-10, 1791228704370339346
-0.013264656066894531, 0.010252177715301514, 3.507765985770552e-10, 1791228704400428322
0.012251138687133789, 0.006631195545196533, 2.2141733684373046e-10, 1791228704430494598
0.037593960762023926, -0.002301037311553955, 1.657767092619349e-10, 1791228704463259668
-0.025292932987213135, -0.016556203365325928, 1.63415420061152e-10, 1791228704494025358
-0.02168673276901245, -0.007576286792755127, 1.715693190950174e-10, 1791228704520726892
0.00561976432800293, -0.0003249645233154297, 1.4879995752559114e-10, 1791228704550681585
0.00031942129135131836, 0.01214975118637085, 3.1743277727908253e-11, 1791228704580774495
0.007376194000244141, -0.009453952312469482, 4.0910516930537617e-11, 1791228704610784392
-0.012450754642486572, -0.004164397716522217, 4.6695197271364294e-11, 1791228704640840021
-0.03726547956466675, 0.002974212169647217, 1.5877761062033723e-11, 1791228704670953971
0.029519975185394287, 0.027879834175109863, -1.494817691733643e-11, 1791228704702081538
0.007932662963867188, -0.012001514434814453, 3.813692990675928e-12, 1791228704734402525
-0.035071611404418945, -0.024568796157836914, 1.4095946954209099e-11, 1791228704761341668
-0.0059830546379089355, 0.020396411418914795, 6.169871049482698e-12, 1791228704791054933
0.019290685653686523, 0.0202062726020813, 5.044099955644994e-11, 1791228704821128059
0.0156174898147583, -0.021140456199645996, 4.071352312663017e-11, 1791228704851140905
0.004679203033447266, -0.017445623874664307, 3.989013065623251e-13, 1791228704881197432
-0.020467758178710938, -0.01553332805633545, -3.3739651603096286e-12, 1791228704911235812
0.008451342582702637, 0.04385298490524292, -2.1444147923842508e-11, 1791228704941046866
0.033595263957977295, -0.01187068223953247, -2.6144546317583905e-11, 1791228704974740214
0.006554841995239258, -0.02622133493423462, -1.3371500341707018e-11, 1791228705001511025
-0.03296172618865967, -0.002693772315979004, -1.5429176492338396e-11, 1791228705031568066
0.013981759548187256, 0.009943723678588867, -4.9981710700860985e-11, 1791228705061533358
0.010386168956756592, 0.010031461715698242, -6.255110039446904e-11, 1791228705091589822
0.02624887228012085, -0.01681274175643921, -4.1064295887805665e-11, 1791228705121632147
0.016984164714813232, -0.023738503456115723, -1.3728108104417494e-11, 1791228705151003413
-0.03333097696304321, 0.01619124412536621, -1.508972265306779e-11, 1791228705182500259
0.0331079363822937, 0.007246851921081543, -1.0070241731517663e-11, 1791228705214829525
0.014923572540283203, -0.017787933349609375, 3.90833928150415e-11, 1791228705241877885
-0.0069574713706970215, -0.020998597145080566, 1.0353032870414462e-10, 1791228705271861858
-0.04299682378768921, 0.008050620555877686, 2.9501402308804614e-10, 1791228705301896688
0.005705893039703369, 0.006471574306488037, 2.763248600275228e-10, 1791228705331934797
0.020121276378631592, -0.000661313533782959, 1.691849408604856e-10, 1791228705360983156
-0.0069348812103271484, -0.009576022624969482, 1.76172784318367e-10, 1791228705392024706
-0.04987877607345581, 0.006796538829803467, 1.8943883572236964e-10, 1791228705422538136
-0.02427542209625244, 0.021183490753173828, -8.87961841605795e-12, 1791228705454451698
0.026313424110412598, -0.007702469825744629, -2.079253816218276e-10, 1791228705484243816
0.015610814094543457, 0.006815195083618164, 1.0584934631569207e-06, 1791228705512391610
-0.050831735134124756, -0.016262531280517578, -2.0960264054414405e-10, 1791228705542289718
-0.01108694076538086, 0.035999178886413574, -3.3630191704939044e-10, 1791228705572347546
0.003555774688720703, 0.00915837287902832, -4.701816496631719e-10, 1791228705602413154
0.025123417377471924, -0.010539889335632324, 9.91018907813708e-07, 1791228705632470933
-0.021666109561920166, -0.01043856143951416, -4.3334864315590967e-10, 1791228705662531217
-0.028590261936187744, 0.0004926919937133789, -4.943376845957532e-10, 1791228705693010859
0.0009487271308898926, 0.02165389060974121, 6.22914331226921e-05, 1791228705725544272
0.13907372951507568, 0.03088092803955078, -0.002094571105554329, 1791228705752706115
0.7549828290939331, 0.5157849192619324, 0.08151776527079486, 1791228705782643030
1.3517674207687378, 0.12100410461425781, 0.2527696995912826, 1791228705812697728
0.27913618087768555, -0.16840267181396484, 0.3227522265081986, 1791228705842729732
0.693088173866272, 0.191542387008667, 0.39215588340358615, 1791228705872793459
0.38441067934036255, 0.6975387334823608, 0.4532400584334245, 1791228705902877638
0.278508722782135, -0.30713921785354614, 0.5250406210127836, 1791228705934605400
-0.25065356492996216, -0.041490018367767334, 0.4900871345933433, 1791228705966241054
-0.34719735383987427, -0.054059386253356934, 0.5526536655529025, 1791228705993082784
-0.25984036922454834, 0.21652209758758545, 0.47516472442246915, 1791228706023119912
0.11227256059646606, -0.07689684629440308, 0.4950416000300277, 1791228706053192150
0.3539215326309204, -0.0026260018348693848, 0.5381239604392747, 1791228706083234517
-0.0886240005493164, 0.14613819122314453, 0.4990393521292819, 1791228706113302062
-0.00540316104888916, 0.04593104124069214, 0.4836111559976904, 1791228706143337772
0.15230798721313477, -0.09046036005020142, 0.4698739819962222, 1791228706174141625
-0.32316499948501587, 0.11511939764022827, 0.4585774976282362, 1791228706206037938
-0.021810710430145264, 0.02371138334274292, 0.582059053371788, 1791228706232609053
-0.20048099756240845, 0.030953526496887207, 0.48208599313123623, 1791228706263787768
0.1405159831047058, 0.08113515377044678, 0.5270867586570904, 1791228706293514985
-0.08278846740722656, 0.053726136684417725, 0.5045130159045798, 1791228706323523584
0.08864766359329224, 0.04426032304763794, 0.5125379983948729, 1791228706353585182
0.059856116771698, 0.10391223430633545, 0.5025955628422256, 1791228706383627890
-0.011733949184417725, 0.13609129190444946, 0.4813541810171719, 1791228706414138896
0.18509244918823242, -0.07884478569030762, 0.4574234560870543, 1791228706446791081
-0.05624878406524658, 0.005509674549102783, 0.5593555670854379, 1791228706473880555
-0.05711495876312256, 0.26445841789245605, 0.5236492978407927, 1791228706503913165
0.044182002544403076, -0.22865676879882812, 0.5248153923806154, 1791228706533858453
0.28683775663375854, 0.047438621520996094, 0.4968772406671881, 1791228706564577853
0.0856088399887085, -0.05802273750305176, 0.49853664357508115, 1791228706594601781
-0.17617863416671753, 0.2484099268913269, 0.4924338959678457, 1791228706624680743
0.13895642757415771, 0.006506979465484619, 0.4782176083005015, 1791228706654678302
-0.3080652952194214, 0.016056478023529053, 0.46015603142096395, 1791228706686273284
0.43665146827697754, 0.10439640283584595, 0.5103225622716279, 1791228706716344625
-0.4603521227836609, -0.1145215630531311, 0.5524885037637279, 1791228706744763767
0.655281126499176, 0.030877768993377686, 0.5059716073441999, 1791228706774706428
-0.11836743354797363, -0.014467954635620117, 0.4831482375944531, 1791228706804799811
0.31183844804763794, 0.07598710060119629, 0.49092086303967913, 1791228706834714719
-0.05518174171447754, -0.025448977947235107, 0.48979431819834857, 1791228706864736838
-0.24176210165023804, 0.12529432773590088, 0.4960132078879871, 1791228706894859366
0.02718961238861084, -0.026803135871887207, 0.48313428295974287, 1791228706926327502
0.08125805854797363, 0.14787471294403076, 0.49232692752941604, 1791228706957585800
0.4183613061904907, 0.07712054252624512, 0.5452345319474213, 1791228706984869741
-0.29799383878707886, -0.03949242830276489, 0.492123130477848, 1791228707014885926
0.05806255340576172, 0.15169966220855713, 0.479576332282409, 1791228707044884790
-0.3020123243331909, -0.018805623054504395, 0.49287051460537, 1791228707074942548
0.24341940879821777, -0.0415269136428833, 0.49965471933503025, 1791228707105176654
-0.14611929655075073, -0.10752171277999878, 0.5215553349727196, 1791228707135051107
0.3046097159385681, 0.06157916784286499, 0.5198422832230674, 1791228707166157689
-0.02699458599090576, 0.35164856910705566, 0.4530660237321867, 1791228707198473980
0.5670658946037292, 0.13575410842895508, 0.5419105197963179, 1791228707234013711
-0.41887199878692627, -0.05340355634689331, 0.48463239021756893, 1791228707265114812
-0.3423084616661072, -9.02414321899414e-05, 0.5439469531139299, 1791228707295132427
0.3909021019935608, -0.10970449447631836, 0.5055617914278353, 1791228707326097426
-0.20772838592529297, 0.3036487102508545, 0.4695875244611668, 1791228707358437345
0.3304603695869446, -0.04534447193145752, 0.5562671451986152, 1791228707385344403
0.04515266418457031, 0.09990531206130981, 0.5116037567675126, 1791228707415293673
-0.018863439559936523, 0.16167879104614258, 0.5058682730696535, 1791228707445385407
-0.05452609062194824, 0.08905947208404541, 0.5245293320195107, 1791228707474405335
0.09220695495605469, -0.04009491205215454, 0.487293790720021, 1791228707505474178
0.3281041383743286, -0.04307723045349121, 0.5023118776948973, 1791228707535628761
0.1384924054145813, 0.2059432864189148, 0.4825948455950462, 1791228707566067315
0.16525936126708984, 0.0958067774772644, 0.4516862175295633, 1791228707598806822
-0.08235424757003784, 0.15635138750076294, 0.5339763557929216, 1791228707625810160
0.054040729999542236, 0.003400444984436035, 0.49543542769556537, 1791228707655774808
0.02030622959136963, -0.0025177001953125, 0.49674386011391986, 1791228707685766276
-0.05390554666519165, 0.13388663530349731, 0.4951611480685747, 1791228707715830584
0.16142868995666504, 0.018873989582061768, 0.4852153397123714, 1791228707745881350
-0.06011462211608887, 0.057705700397491455, 0.490866239764203, 1791228707775913188
-0.049389541149139404, 0.21857154369354248, 0.4708940956993416, 1791228707806793455
-0.40380746126174927, -0.16329067945480347, 0.46328849318721865, 1791228707838196036
0.18865501880645752, 0.028966248035430908, 0.5319192298265286, 1791228707866094715
-0.4436904191970825, -0.050902724266052246, 0.5048999144208698, 1791228707896108264
0.6598373651504517, 0.25397706031799316, 0.5012074223403785, 1791228707926147757
-0.5392884016036987, -0.02708888053894043, 0.456694338301933, 1791228707956234778
0.12514787912368774, -0.001629471778869629, 0.49200072465082534, 1791228707986236876
0.041771769523620605, 0.12220621109008789, 0.49091098641979153, 1791228708016323306
-0.12688785791397095, 0.12034130096435547, 0.5070981855299705, 1791228708046615413
-0.025421738624572754, 0.07998812198638916, 0.4692214928803628, 1791228708078420466
-0.4245902895927429, 0.109713613986969, 0.4825056380900945, 1791228708109269248
-0.05185532569885254, 0.04680442810058594, 0.504393797962405, 1791228708146647896
-0.3154328465461731, 0.07903140783309937, 0.5015965602485931, 1791228708176593065
-0.06883949041366577, -0.13652467727661133, 0.5015043873249165, 1791228708206531145
-0.20675188302993774, -0.04633927345275879, 0.4734151734440104, 1791228708238835565
-0.18857020139694214, 0.09983694553375244, 0.47539896219120537, 1791228708269742438
0.9423014521598816, -0.021878719329833984, 0.579168932290434, 1791228708296791069
-0.018196046352386475, 0.1280314326286316, 0.5008782796232539, 1791228708326765940
-0.05443000793457031, 0.1794189214706421, 0.43512553224253586, 1791228708350327971
-0.4409830570220947, -0.029183685779571533, 0.5987247709038811, 1791228708377802664
-0.06519865989685059, 0.03989613056182861, 0.5503340665334865, 1791228708406925574
-0.3007734417915344, 0.044843435287475586, 0.5065005542223835, 1791228708436007624
0.6330528259277344, 0.12641382217407227, 0.47961379905121426, 1791228708466016077
-0.24922281503677368, 0.09073960781097412, 0.469148793453498, 1791228708497300449
0.24005568027496338, -0.021410822868347168, 0.5034567456459271, 1791228708527136156
-0.18748944997787476, -0.06445413827896118, 0.49169493102238837, 1791228708558583283
-0.23518121242523193, 0.1366071105003357, 0.486330621946425, 1791228708590481725
-0.020836472511291504, 0.17907291650772095, 0.5594874090949923, 1791228708617347179
0.06542497873306274, 0.20305031538009644, 0.4985150824180508, 1791228708647371152
0.21734833717346191, -0.04437011480331421, 0.49685825224657143, 1791228708677367612
-0.01589101552963257, -0.09934985637664795, 0.514652299976899, 1791228708707437655
-0.1891927719116211, 0.13671833276748657, 0.5076250134998301, 1791228708737626339
0.1706300973892212, 0.17508023977279663, 0.5053348955043345, 1791228708767493640
-0.10011845827102661, 0.13519197702407837, 0.4681978232061545, 1791228708798157089
-0.1997801661491394, -0.034060537815093994, 0.47248787459755537, 1791228708830175813
0.035309433937072754, -0.08764350414276123, 0.5476446943937399, 1791228708857767523
-0.548824667930603, -0.00831615924835205, 0.5071370088630696, 1791228708887681544
0.5474762916564941, 0.08536994457244873, 0.4714877216193659, 1791228708917762891
-0.5086034536361694, 0.20665359497070312, 0.4793908212711331, 1791228708947812325
0.038519322872161865, -0.20126450061798096, 0.483078853577505, 1791228708977880121
-0.4980543851852417, 0.13731491565704346, 0.5197333276875036, 1791228709007016784
0.2736380696296692, 0.0909162163734436, 0.48611062807364946, 1791228709038507842
0.3112371563911438, 0.13514137268066406, 0.4638938592372029, 1791228709070620677
-0.203605055809021, 0.08950084447860718, 0.5205885402574838, 1791228709098125256
-0.11040741205215454, -0.02600044012069702, 0.49410415209574116, 1791228709128172757
-0.12076783180236816, -0.01185685396194458, 0.4909638993485656, 1791228709158158653
0.07860672473907471, 0.053523898124694824, 0.5054729666830418, 1791228709188211663
0.2840506434440613, 0.20037579536437988, 0.49481912225301977, 1791228709218248631
0.038226187229156494, 0.061174094676971436, 0.5043562983200508, 1791228709248294179
0.06441795825958252, -0.1065819263458252, 0.4897803670520258, 1791228709278380135
-0.12445050477981567, 0.04432862997055054, 0.4748943060444331, 1791228709310178538
-0.05693709850311279, 0.055536508560180664, 0.5011317351182565, 1791228709340541870
0.018348395824432373, 0.23660117387771606, 0.5492344093365064, 1791228709368483022
-0.0037848949432373047, 0.043217241764068604, 0.5200363303938347, 1791228709397509656
-0.06275099515914917, -0.0045667290687561035, 0.4733716497067987, 1791228709428544975
0.3535587787628174, -0.07423847913742065, 0.5143457578916376, 1791228709458623884
0.10697662830352783, 0.23620110750198364, 0.5040838451660739, 1791228709488703746
-0.31957393884658813, 0.12799209356307983, 0.49966097196463816, 1791228709518849376
0.10392314195632935, -0.13295650482177734, 0.47454649093109436, 1791228709550254300
-0.27256566286087036, 0.05941283702850342, 0.4766203483878373, 1791228709581403293
0.21702396869659424, 0.05764538049697876, 0.5427145782669878, 1791228709608881357
-0.16650426387786865, 0.1687556505203247, 0.49365049132655886, 1791228709638954332
0.39707016944885254, 0.05691903829574585, 0.49544059786608624, 1791228709669035481
-0.37978416681289673, 0.014383316040039062, 0.5053720426400568, 1791228709699115256
0.27033454179763794, -0.047455549240112305, 0.5013050126818984, 1791228709729747641
-0.04040205478668213, 0.2205488085746765, 0.5304767921610337, 1791228709759212107
0.3284822702407837, 0.09950894117355347, 0.47887846692642505, 1791228709790228490
-0.15943026542663574, 0.10922139883041382, 0.4549533707063866, 1791228709822741016
0.4337088465690613, -0.16019964218139648, 0.5700324189503315, 1791228709849351269
-0.18536525964736938, 0.1282711625099182, 0.5297991512508455, 1791228709879306448
0.22063887119293213, 0.10601836442947388, 0.43825584261870365, 1791228709902908406
0.11767667531967163, 0.16566407680511475, 0.5672076220941795, 1791228709929511268
0.08244049549102783, -0.021187961101531982, 0.4955780755285969, 1791228709959476131
-0.026866614818572998, -0.0593113899230957, 0.5162923578900975, 1791228709989514337
0.21506470441818237, -0.024569213390350342, 0.5358907361888465, 1791228710018562036
-0.19455331563949585, 0.3225857615470886, 0.487102290085695, 1791228710049616586
-0.11200261116027832, 0.06696152687072754, 0.48391313988081786, 1791228710079676066
-0.4309236407279968, -0.17092204093933105, 0.4937208536420746, 1791228710110239120
0.30347269773483276, 0.18626385927200317, 0.48055440856564924, 1791228710142540517
-0.10704249143600464, 0.22063636779785156, 0.5495395483545945, 1791228710169886771
0.06694138050079346, -0.0123177170753479, 0.47811423402015085, 1791228710199837412
-0.16991811990737915, -0.08831018209457397, 0.47711629195436595, 1791228710229912818
0.04921597242355347, 0.19936275482177734, 0.5024843464683244, 1791228710259919754
-0.24431109428405762, 0.005612790584564209, 0.5123430469258534, 1791228710288988023
-0.1616925597190857, 0.21183395385742188, 0.48104433845437594, 1791228710319018702
-0.17982858419418335, -0.06116831302642822, 0.46654737636304616, 1791228710350689421
0.17313063144683838, -0.017377018928527832, 0.48032232245816736, 1791228710382911161
-0.025912880897521973, 0.15050995349884033, 0.5668958606123116, 1791228710410279092
0.2914513349533081, 0.18741756677627563, 0.49350784884531873, 1791228710440305830
-0.35610246658325195, -0.015836775302886963, 0.4854809942492101, 1791228710470563853
0.1276293396949768, -0.14673829078674316, 0.5096067136052944, 1791228710500381251
-0.011273741722106934, 0.12913501262664795, 0.5256153043309726, 1791228710530443277
-0.1506924033164978, 0.2663196921348572, 0.4983983874532747, 1791228710560719091
-0.020913422107696533, -0.12762051820755005, 0.48322077207341413, 1791228710591562419
0.17062866687774658, -0.15230053663253784, 0.4704674851689358, 1791228710622686128
0.04187178611755371, 0.2844865918159485, 0.5717562332953178, 1791228710649632654
-0.0004767775535583496, 0.21723347902297974, 0.4950075134081596, 1791228710680675977
-0.09387415647506714, -0.11415666341781616, 0.5058418465670089, 1791228710710664471
-0.06981289386749268, -0.019043445587158203, 0.4911518766002825, 1791228710740713745
0.16689038276672363, 0.17025035619735718, 0.49118371599820154, 1791228710770774101
0.49394547939300537, 0.14267891645431519, 0.5012373109711673, 1791228710800792349
0.1919439435005188, -0.07316339015960693, 0.49035615702817575, 1791228710830904058
-0.1838056445121765, 0.0005545616149902344, 0.46753342907995166, 1791228710863243427
-0.09333294630050659, 0.16892439126968384, 0.4873211281894719, 1791228710894184224
-0.1715654730796814, 0.16772502660751343, 0.5723915411967856, 1791228710921040840
0.2479771375656128, 0.04248476028442383, 0.49665303063648225, 1791228710951069255
0.06094092130661011, -0.10076290369033813, 0.48938333586806226, 1791228710981124212
-0.18512457609176636, 0.12497508525848389, 0.504180264572015, 1791228711011185997
-0.12719619274139404, 0.2349911332130432, 0.513360438623747, 1791228711041229963
-0.18127107620239258, 0.036978304386138916, 0.5178278462298971, 1791228711071284236
-0.269825279712677, -0.076374351978302, 0.49638127300217816, 1791228711102689421
0.22283220291137695, 0.1847798228263855, 0.47795833116472064, 1791228711134534829
-0.42141568660736084, 0.22102069854736328, 0.532310502977432, 1791228711161416175
0.127721905708313, -0.07431221008300781, 0.4911976276541141, 1791228711191457383
-0.3710751533508301, -0.0296592116355896, 0.5220639353132025, 1791228711221474069
0.22956734895706177, 0.0629764199256897, 0.4992429265969244, 1791228711251537666
-0.6101946234703064, 0.32418882846832275, 0.47882702750652223, 1791228711281843137
-0.19552326202392578, -0.08651703596115112, 0.4907451404998507, 1791228711311647713
-0.039502620697021484, 0.030249297618865967, 0.479371041947611, 1791228711342969956
0.12556463479995728, 0.1593441367149353, 0.4633015710926093, 1791228711374815349
0.08992308378219604, 0.18413299322128296, 0.5479682583464316, 1791228711401851741
-0.19395101070404053, 0.005986809730529785, 0.48317034990069113, 1791228711432302141
-0.03336620330810547, -0.05962109565734863, 0.5115083209657412, 1791228711461881905
-0.07295429706573486, 0.2530212998390198, 0.5167522376735547, 1791228711491010213
-0.04627704620361328, 0.04181128740310669, 0.47782279775891334, 1791228711521009434
-0.4004182815551758, -0.07784640789031982, 0.485002823796422, 1791228711552103940
0.31732994318008423, 0.07110399007797241, 0.5147982150613573, 1791228711582569825
0.17723780870437622, 0.35804057121276855, 0.47609285281180586, 1791228711614864950
-0.12433701753616333, 0.2574281096458435, 0.5367091350069012, 1791228711642247974
-0.033266663551330566, -0.44868743419647217, 0.4990846266646697, 1791228711672275849
0.19259238243103027, 0.054261863231658936, 0.5183068564651214, 1791228711702264837
-0.25211966037750244, 0.4205239415168762, 0.49982817158351905, 1791228711732345565
-0.45749735832214355, -0.01357203722000122, 0.485253566713554, 1791228711762372589
0.001474916934967041, -0.062191784381866455, 0.4994983951221076, 1791228711792450948
0.16443413496017456, 0.22844243049621582, 0.5070795985826905, 1791228711822836732
0.0036216378211975098, 0.2426232099533081, 0.4690696178700104, 1791228711854426764
-0.20891213417053223, -0.25406330823898315, 0.49446281604188563, 1791228711884118856
0.40306299924850464, 0.04310047626495361, 0.533122146172806, 1791228711912900271
0.16800087690353394, 0.5186120271682739, 0.5054726831987011, 1791228711942842049
0.30971795320510864, 0.04744952917098999, 0.48111541811803, 1791228711972744428
-0.42490607500076294, -0.3461882472038269, 0.5040277507345562, 1791228712002775747
0.11769598722457886, 0.1907416582107544, 0.5222489591562017, 1791228712032886378
-0.00923532247543335, 0.4222957491874695, 0.4949763093750088, 1791228712062939895
-0.23126834630966187, -0.2452797293663025, 0.4617089678655419, 1791228712094474351
0.0519176721572876, -0.04272425174713135, 0.47909106515556427, 1791228712126336200
-0.19039058685302734, 0.3984519839286804, 0.5953607277615962, 1791228712153136864
0.49042797088623047, 0.214572012424469, 0.4979191690007348, 1791228712183042308
-0.430622935295105, -0.20726823806762695, 0.48662946978410676, 1791228712213117063
-0.25406986474990845, 0.08163237571716309, 0.5140355829962666, 1791228712243131673
-0.012079000473022461, 0.44802790880203247, 0.5111390528673017, 1791228712273221966
0.037286996841430664, 0.050282955169677734, 0.49029858607794347, 1791228712303229604
-0.15487760305404663, -0.4058172106742859, 0.45383249970357065, 1791228712335226136
0.0795292854309082, 0.5387199521064758, 0.47621117032573423, 1791228712366411752
-0.17180097103118896, 0.18989336490631104, 0.5311283609430751, 1791228712393609806
-0.2416844367980957, -0.3829711079597473, 0.49101766906176814, 1791228712423485726
-0.20629900693893433, 0.3434748649597168, 0.506913933634316, 1791228712453565459
0.0675499439239502, 0.26670050621032715, 0.5099246869003703, 1791228712483563094
0.028602540493011475, -0.15447509288787842, 0.48627617584151217, 1791228712513641836
-0.300320565700531, -0.18511104583740234, 0.48938515248073056, 1791228712543814794
0.2110201120376587, 0.5151484608650208, 0.493283852676618, 1791228712574588640
0.01978987455368042, 0.22318881750106812, 0.46902575841653826, 1791228712606690964
0.17803257703781128, -0.3440181612968445, 0.563572632299578, 1791228712633841745
0.2405276894569397, 0.22747927904129028, 0.5117297044736795, 1791228712663837700
0.15477585792541504, 0.3615453243255615, 0.49547586716633457, 1791228712693933072
-0.05025506019592285, -0.12681597471237183, 0.4881565003775394, 1791228712723918808
0.033682942390441895, -0.1699810028076172, 0.5102829452514134, 1791228712753967883
-0.08475393056869507, 0.576811671257019, 0.5164076465581122, 1791228712784073453
-0.10620391368865967, 0.02156919240951538, 0.49680709552264274, 1791228712814477752
-0.022085845470428467, -0.2618939280509949, 0.4596620064960806, 1791228712847036889
0.15213477611541748, 0.34595227241516113, 0.5583762983508463, 1791228712874192234
-0.33215057849884033, 0.23994672298431396, 0.4889996354563238, 1791228712904939527
-0.07608336210250854, -0.2006469964981079, 0.5102473710431735, 1791228712934887029
0.3557574152946472, 0.13591182231903076, 0.5089637455199076, 1791228712964968589
-0.3681623339653015, 0.297447144985199, 0.49154731747824115, 1791228712994943768
0.26033705472946167, -0.20049983263015747, 0.5043595123376086, 1791228713024019031
-0.060177385807037354, 0.14541298151016235, 0.4783052421354471, 1791228713055026534
-0.23208552598953247, 0.23716968297958374, 0.48005863544840954, 1791228713086399838
-0.8639402985572815, -0.062253475189208984, 0.4943918344707971, 1791228713117127857
0.6660385131835938, -0.06340229511260986, 0.5495173376386857, 1791228713145158394
-0.3520016074180603, 0.4738631248474121, 0.5172249535719872, 1791228713174021760
0.027898132801055908, 0.03360140323638916, 0.4809600776429301, 1791228713205099834
-0.32104605436325073, -0.32408517599105835, 0.5089548547397419, 1791228713235091758
0.32517707347869873, 0.29418081045150757, 0.49436439350260564, 1791228713265181205
-0.24296098947525024, 0.17023563385009766, 0.49776455509017936, 1791228713295228183
-0.14441442489624023, -0.3721922039985657, 0.4838802012950906, 1791228713326406039
-0.30890965461730957, 0.08878308534622192, 0.4552339888133474, 1791228713357885395
0.05947655439376831, -0.09937798976898193, 0.5153781499875822, 1791228713385392147
-0.1476239562034607, -0.07953548431396484, 0.4978367586394731, 1791228713415425174
0.12601619958877563, 0.5023916959762573, 0.5264239211151265, 1791228713445428409
-0.2439514398574829, 0.025610685348510742, 0.49407768139236635, 1791228713475371296
0.08600860834121704, -0.341328501701355, 0.475502333020562, 1791228713505386980
0.22257226705551147, 0.4162353277206421, 0.5000883112455806, 1791228713535348145
0.16714704036712646, 0.3001368045806885, 0.4785431112705562, 1791228713566334058
-0.02766859531402588, -0.25471431016921997, 0.4510778225139444, 1791228713598336259
0.32936275005340576, 0.06005370616912842, 0.5564148120840293, 1791228713625550613
0.055640578269958496, 0.382624089717865, 0.49973034474432726, 1791228713655473698
-0.11339128017425537, -0.16764938831329346, 0.510982118206105, 1791228713685531059
0.3773982524871826, 0.06623959541320801, 0.5099781411408653, 1791228713705632705
-0.05797004699707031, 0.43568968772888184, 0.5140318700776566, 1791228713735579140
0.2447081208229065, -0.16629552841186523, 0.48235852795589035, 1791228713765679440
-0.29506129026412964, -0.22858750820159912, 0.4997100832762705, 1791228713795667159
0.22732096910476685, 0.49311548471450806, 0.5176410591488211, 1791228713825779066
-0.4229716658592224, 0.024087190628051758, 0.5043869736375336, 1791228713855761542
0.26979517936706543, -0.20861655473709106, 0.5029353928569681, 1791228713886451937
0.09296625852584839, 0.38444483280181885, 0.49268589981107536, 1791228713918427241
-0.08948862552642822, -0.08880817890167236, 0.5519454234408203, 1791228713946061872
-0.4694977402687073, -0.11709606647491455, 0.5061285403370315, 1791228713974983173
0.16407692432403564, 0.3256780505180359, 0.46308703981727845, 1791228714006073296
-0.35000860691070557, -0.01159060001373291, 0.49170219836101686, 1791228714036081237
0.13467878103256226, 0.05808126926422119, 0.5073735815693415, 1791228714066156758
-0.11453628540039062, 0.327472448348999, 0.5071881552089746, 1791228714096190532
0.19613081216812134, -0.11747246980667114, 0.4792484355687773, 1791228714126886999
-0.06888669729232788, -0.25829529762268066, 0.4603587839694915, 1791228714158388603
0.06378227472305298, 0.4076305031776428, 0.5314543291790497, 1791228714186394106
-0.43605828285217285, 0.12809884548187256, 0.4977560693379508, 1791228714217052194
0.3486853837966919, -0.2113514542579651, 0.5165685707300312, 1791228714246424924
-0.2258167266845703, 0.21324491500854492, 0.4404281995178286, 1791228714268801483
-0.012429773807525635, -0.12828779220581055, 0.5309117366629504, 1791228714296722106
-0.06873685121536255, -0.007336914539337158, 0.509163920074183, 1791228714326578672
-0.06624734401702881, 0.49688011407852173, 0.5024137074815638, 1791228714356590954
-0.30455392599105835, 0.03347557783126831, 0.5046479813175325, 1791228714386672238
-0.08159780502319336, -0.17795586585998535, 0.4910315749117365, 1791228714416817380
0.08089548349380493, 0.36516737937927246, 0.4997429928905412, 1791228714445917158
-0.17742007970809937, -0.06206995248794556, 0.4713773179219965, 1791228714478446553
0.024683654308319092, -0.09994661808013916, 0.49763463454563756, 1791228714509942525
0.04487103223800659, 0.3779446482658386, 0.5445025706218027, 1791228714536943382
-0.31874799728393555, -0.07973235845565796, 0.4801875354757291, 1791228714566959365
0.27012503147125244, -0.11473602056503296, 0.5235850132988874, 1791228714596009800
-0.15778279304504395, 0.5033597946166992, 0.48610406300006553, 1791228714627055783
0.13677549362182617, -0.13106757402420044, 0.5072919878199639, 1791228714657078093
-0.055388450622558594, -0.11818736791610718, 0.5109261295541612, 1791228714687174052
0.26988083124160767, 0.5505912899971008, 0.47727329323572526, 1791228714718466659
0.06417655944824219, 0.2390536069869995, 0.519723146844428, 1791228714757326290
0.18969511985778809, 0.5596270561218262, 0.5145402525484198, 1791228714787517509
-0.27164769172668457, -0.11782658100128174, 0.5052655306845554, 1791228714817495346
0.07496029138565063, -0.03468412160873413, 0.5061664773838189, 1791228714847413745
-0.09757047891616821, 0.4041767120361328, 0.4846877160649489, 1791228714878503339
-0.40649956464767456, -0.11839926242828369, 0.47151150038529216, 1791228714910542375
0.268546462059021, -0.15436172485351562, 0.573258425023677, 1791228714937621970
-0.03033667802810669, 0.3619624376296997, 0.508367197535161, 1791228714967627135
0.035681188106536865, 0.0805288553237915, 0.5031369328093919, 1791228714997642778
-0.27452993392944336, 0.12057137489318848, 0.49823688162367125, 1791228715027705408
0.35221970081329346, -0.008723556995391846, 0.48667296268529464, 1791228715057755652
-0.07894003391265869, 0.16675245761871338, 0.5111299224506368, 1791228715086821572
0.16773706674575806, 0.2026730179786682, 0.4742401672969582, 1791228715118751923
-0.007053375244140625, -0.19734084606170654, 0.4848358392739258, 1791228715149991252
-0.021329760551452637, 0.3581657409667969, 0.5361420136721655, 1791228715177008175
0.23262637853622437, 0.19035404920578003, 0.4619525535454244, 1791228715207969654
0.22472310066223145, -0.2623000144958496, 0.5109805832497847, 1791228715237012851
-0.18825215101242065, 0.21127110719680786, 0.4981431816402374, 1791228715268071651
-0.0886392593383789, 0.39927762746810913, 0.5138467425010008, 1791228715298346703
0.22331905364990234, -0.25569361448287964, 0.4884519657252019, 1791228715328227047
-0.42027992010116577, 0.028406202793121338, 0.46507006721627164, 1791228715358583004
0.050069570541381836, 0.3409034013748169, 0.47140124092497127, 1791228715390454126
-0.040806710720062256, 0.026817381381988525, 0.5453690079178852, 1791228715418377146
0.32775115966796875, 0.03328484296798706, 0.4911472103556039, 1791228715448438134
-0.4241639971733093, 0.1453920602798462, 0.49164904166265, 1791228715478420138
0.09559249877929688, 0.06888467073440552, 0.5040253906872845, 1791228715508463209
-0.3582792282104492, 0.0652875304222107, 0.5000607934278065, 1791228715538532121
0.04122030735015869, 0.15605610609054565, 0.5132910827268385, 1791228715568572702
0.1849879026412964, 0.2511519193649292, 0.48419903350384896, 1791228715599775500
0.01129084825515747, -0.12588977813720703, 0.48177789006040367, 1791228715630835963
0.021091699600219727, 0.05097776651382446, 0.5146258326454272, 1791228715660804857
-0.1916271448135376, 0.4771795868873596, 0.5501492030835614, 1791228715688765236
-0.08992397785186768, -0.20148062705993652, 0.5144690218102461, 1791228715718798816
0.5443909168243408, 0.14180105924606323, 0.4624686922154573, 1791228715740897560
0.042300641536712646, 0.4950043559074402, 0.5481941650513459, 1791228715778115757
-0.20227831602096558, -0.029295146465301514, 0.5051291688119736, 1791228715808063715
0.10793638229370117, -0.12386816740036011, 0.49419850128382564, 1791228715839135542
-0.15888679027557373, 0.4363347291946411, 0.4804784164398395, 1791228715870770252
-0.0022057294845581055, 0.02258002758026123, 0.4798950910376582, 1791228715902291873
-0.050238847732543945, 0.06780046224594116, 0.534259861011916, 1791228715929191438
-0.41692233085632324, -0.05144226551055908, 0.4981638740532646, 1791228715959342942
0.48098117113113403, 0.16464120149612427, 0.499418753550012, 1791228715989280782
0.39963382482528687, 0.19887763261795044, 0.48750063121053683, 1791228716019380292
-0.26900607347488403, -0.00997704267501831, 0.4980645230148469, 1791228716049365252
-0.23613286018371582, 0.13681626319885254, 0.49107262106351446, 1791228716079411033
-0.07495546340942383, -0.2402898073196411, 0.4729168104994651, 1791228716110776691
0.0761064887046814, 0.09688222408294678, 0.4639031798801721, 1791228716142688432
0.2965172529220581, 0.7633860111236572, 0.5401119729489002, 1791228716170195063
-0.06840747594833374, -0.1873844861984253, 0.5109837414766584, 1791228716200254625
0.06399184465408325, 0.12356746196746826, 0.5078616883306145, 1791228716230310712
-0.011687934398651123, 0.03956824541091919, 0.5113136511740016, 1791228716260368984
0.3396682143211365, 0.1693739891052246, 0.5250984623931056, 1791228716290197143
-0.11161911487579346, 0.019124329090118408, 0.5076042048759216, 1791228716320242608
-0.1656147837638855, -0.03157323598861694, 0.4999439113886779, 1791228716350943461
-0.09258061647415161, 0.45648616552352905, 0.48218986541223574, 1791228716382023349
-0.2362964153289795, -0.0021581053733825684, 0.5315742525603133, 1791228716410189849
0.18157321214675903, -0.03687077760696411, 0.48863287366224956, 1791228716440326615
-0.22957223653793335, 0.11276751756668091, 0.5007449298792513, 1791228716470300156
0.17054539918899536, 0.16778689622879028, 0.5111796505094232, 1791228716500347008
0.5106719732284546, 0.265625, 0.5061823830548731, 1791228716530370581
-0.42299824953079224, -0.28732264041900635, 0.5114006858346433, 1791228716560496870
0.17739176750183105, 0.33532387018203735, 0.5184874646871892, 1791228716590530168
-0.021310746669769287, 0.39585763216018677, 0.4545254576907891, 1791228716622685542
0.1837795376777649, -0.37874722480773926, 0.5456594452395845, 1791228716650523764
-0.04974186420440674, 0.36122024059295654, 0.5057733987075039, 1791228716680546679
-0.05955326557159424, 0.1899295449256897, 0.5102604483329736, 1791228716710472004
0.45738404989242554, -0.01960843801498413, 0.5041164439915329, 1791228716740512950
-0.09388649463653564, 0.13775193691253662, 0.4790505258148936, 1791228716770533813
-0.44065427780151367, -0.11570221185684204, 0.49307074460304845, 1791228716800620443
0.10972601175308228, 0.2787022590637207, 0.4943378598293224, 1791228716830683852
0.17244952917099, 0.03373163938522339, 0.45162304236729495, 1791228716863377129
-0.12285035848617554, 0.03396409749984741, 0.5237606623304313, 1791228716890786135
0.055242061614990234, -0.07310086488723755, 0.4550684416466566, 1791228716920881753
-0.01182931661605835, 0.11665892601013184, 0.5067508050976985, 1791228716950827899
0.044426798820495605, 0.5268862247467041, 0.5023612505945146, 1791228716980905791
-0.28552860021591187, -0.29547643661499023, 0.4983523348951257, 1791228717010921350
0.36540746688842773, 0.007299840450286865, 0.49406042418129864, 1791228717040969976
-0.28432679176330566, 0.3277115225791931, 0.4940307947373186, 1791228717071040547
-0.3851267099380493, -0.008434414863586426, 0.4844870943383596, 1791228717103027447
-0.14865803718566895, 0.24599027633666992, 0.49422247356691407, 1791228717133963436
0.3003184199333191, 0.14205557107925415, 0.5486071980196368, 1791228717161204398
-0.17175287008285522, 0.025767743587493896, 0.5026225150231503, 1791228717191206767
-0.030126631259918213, 0.3540235161781311, 0.42746437710344276, 1791228717214633948
0.07694661617279053, -0.022578835487365723, 0.5666693717602278, 1791228717241448539
0.2148558497428894, 0.21432483196258545, 0.5135510222717269, 1791228717271355526
-0.039888083934783936, 0.04582005739212036, 0.4922790626207443, 1791228717301419116
0.05003756284713745, 0.10260665416717529, 0.4910027708741833, 1791228717331465300
-0.05822080373764038, -0.0994333028793335, 0.49482001108182283, 1791228717361567308
-0.11095243692398071, 0.23596245050430298, 0.5011648366646597, 1791228717391559586
0.321679949760437, 0.2773244380950928, 0.47138418693085204, 1791228717423037881
0.11061316728591919, -0.1569300889968872, 0.4686217835086146, 1791228717454933636
-0.19044393301010132, 0.363822340965271, 0.5369887620253027, 1791228717491712074
-0.07635241746902466, -0.08213150501251221, 0.4952437161871492, 1791228717521770057
0.06116843223571777, 0.17986130714416504, 0.5022939493159789, 1791228717551830599
0.19231051206588745, 0.02372431755065918, 0.5063855928827931, 1791228717582916607
-0.32872623205184937, 0.06756806373596191, 0.48146704238767857, 1791228717613625244
0.49131321907043457, 0.08480483293533325, 0.5153583842699759, 1791228717642326675
-0.21277207136154175, 0.2583499550819397, 0.4927051051635571, 1791228717672088183
-0.14543408155441284, -0.1586359143257141, 0.48707503516167594, 1791228717702160549
-0.08819061517715454, -0.0659494400024414, 0.4851959957490905, 1791228717732088726
0.09052658081054688, 0.40136194229125977, 0.47821343704170977, 1791228717762164069
-0.21589255332946777, -0.10790342092514038, 0.5140913895359963, 1791228717792205370
0.19527298212051392, 0.2840162515640259, 0.4964687902722862, 1791228717823251443
0.4299663305282593, 0.1757371425628662, 0.460758846929325, 1791228717854960584
-0.42741698026657104, 0.006135761737823486, 0.5429612582496485, 1791228717882444797
-0.3667590022087097, 0.07578510046005249, 0.5089015263952348, 1791228717912409569
0.48260074853897095, 0.3018059730529785, 0.5199731882779949, 1791228717942450084
0.3714316487312317, 0.054229736328125, 0.5070704044628421, 1791228717972517848
0.10745447874069214, -0.3086380958557129, 0.5157698584977087, 1791228718002542046
-0.34769946336746216, 0.4590953588485718, 0.5107368272428138, 1791228718032620130
0.44942623376846313, 0.28099048137664795, 0.5129898376747614, 1791228718062937704
-0.29579973220825195, 0.14916956424713135, 0.46405113457000396, 1791228718095052560
0.12181359529495239, -0.3014169931411743, 0.48371163050674837, 1791228718124861049
0.17502164840698242, 0.15864849090576172, 0.5451967701518146, 1791228718152774339
0.13109827041625977, 0.35959750413894653, 0.5049551543856922, 1791228718182817901
0.3745509386062622, -0.16956102848052979, 0.450857100147941, 1791228718205071599
-0.3058314323425293, 0.2646574378013611, 0.5456686194295954, 1791228718232015592
-0.28433769941329956, 0.07277941703796387, 0.49215256090995435, 1791228718261932197
0.49113190174102783, 0.016805052757263184, 0.471750526733385, 1791228718293036062
0.1377478837966919, -0.06553584337234497, 0.48925788551252575, 1791228718323030472
-0.09965330362319946, 0.1537994146347046, 0.49988721291468685, 1791228718353160167
-0.2969467043876648, 0.28598904609680176, 0.498906016419229, 1791228718383194045
0.2680692672729492, -0.1634916067123413, 0.46315198966348065, 1791228718414811461
-0.4241783618927002, 0.36866211891174316, 0.4698072373655781, 1791228718446552961
0.3381754159927368, -0.027469992637634277, 0.5682155681713066, 1791228718473461316
-0.25575870275497437, 0.18305635452270508, 0.49730178735665015, 1791228718503361096
0.9710379838943481, -0.17520290613174438, 0.47497384727825537, 1791228718533436446
-0.09802818298339844, 0.35196059942245483, 0.4786881861321735, 1791228718563783342
-0.20239144563674927, 0.03767496347427368, 0.5031960931202163, 1791228718593488567
0.1098063588142395, 0.11053389310836792, 0.5145166262377829, 1791228718623538700
-0.27883875370025635, 0.035049259662628174, 0.47323676393497116, 1791228718655469867
0.1466813087463379, 0.1123349666595459, 0.4757754652003854, 1791228718686859278
-0.21651554107666016, 0.193833589553833, 0.5494226475109407, 1791228718713763734
0.48881179094314575, 0.08231079578399658, 0.5054041355442803, 1791228718743713041
-0.5350413918495178, 0.26769953966140747, 0.5010838949667437, 1791228718773796450
0.45136988162994385, -0.09270203113555908, 0.5142769431398295, 1791228718803857323
-0.33883190155029297, 0.12496882677078247, 0.49463209171724715, 1791228718833924882
-0.16307204961776733, 0.14447736740112305, 0.49514730579016464, 1791228718863967723
0.028298795223236084, 0.22844141721725464, 0.4962230759065505, 1791228718894406293
0.19162428379058838, 0.0033669471740722656, 0.47214144773155214, 1791228718926700541
-0.40197479724884033, 0.017433226108551025, 0.5538050509652529, 1791228718954187669
0.2109776735305786, 0.08263301849365234, 0.5007578599798075, 1791228718984254069
0.34235793352127075, 0.2353760004043579, 0.4987419056933091, 1791228719014284142
-0.15363091230392456, -0.08394545316696167, 0.48654858068519796, 1791228719044355335
0.2623491883277893, 0.17509949207305908, 0.47687968361533417, 1791228719075277091
-0.12331515550613403, 0.031102299690246582, 0.49891713982428904, 1791228719104489457
0.23249012231826782, 0.06696963310241699, 0.5076560734291586, 1791228719134149155
-0.06336909532546997, 0.22709959745407104, 0.4410609224839038, 1791228719167244518
-0.45424509048461914, -0.08858156204223633, 0.5207434106453769, 1791228719194527185
0.21772849559783936, -0.0763140320777893, 0.46646942302267697, 1791228719225280446
-0.035927772521972656, 0.3609071969985962, 0.5099647789518063, 1791228719255305969
0.07072937488555908, 0.2853633761405945, 0.5342657976567202, 1791228719285208445
0.10237956047058105, -0.2460082769393921, 0.5024209444338907, 1791228719315261613
0.17697715759277344, 0.0634770393371582, 0.49888855577183644, 1791228719345303944
-0.12289184331893921, 0.2585071921348572, 0.5053368429702666, 1791228719375508501
0.18092024326324463, 0.16332417726516724, 0.4698875956283898, 1791228719406864413
-0.1318780779838562, -0.12804549932479858, 0.4744663565858923, 1791228719437479088
-0.650612473487854, 0.49379879236221313, 0.5341898802401591, 1791228719465381755
0.44337230920791626, 0.21469968557357788, 0.49701225513088126, 1791228719495444187
-0.3154148459434509, -0.02531898021697998, 0.4788008080752634, 1791228719525386910
0.580564022064209, -0.25875526666641235, 0.4892670730924346, 1791228719555557147
-0.1595553755760193, 0.48889005184173584, 0.4997163460393876, 1791228719585408794
-0.34784114360809326, 0.20556139945983887, 0.507418864200112, 1791228719615499563
0.23666858673095703, 0.22036701440811157, 0.48268610180097526, 1791228719646690566
0.23166382312774658, -0.2506134510040283, 0.463748292936425, 1791228719678482692
-0.014964878559112549, 0.11351895332336426, 0.5559550029583766, 1791228719705555514
-0.23983371257781982, 0.16991472244262695, 0.513403261935039, 1791228719735531517
0.2571614384651184, 0.28171825408935547, 0.5182033721569183, 1791228719765552397
-0.3146253228187561, -0.14923977851867676, 0.5056606576688645, 1791228719795638641
0.13560253381729126, 0.10076022148132324, 0.4950804699357697, 1791228719825703563
-0.6665624380111694, -0.09212851524353027, 0.4991671109148694, 1791228719855675722
0.5625326633453369, 0.2836405038833618, 0.4919379327952324, 1791228719886717214
-0.16266334056854248, 0.3081900477409363, 0.464991050142181, 1791228719918045824
-0.03759819269180298, -0.24012088775634766, 0.5185878853746515, 1791228719945748891
0.2584466338157654, 0.31157898902893066, 0.4946898806170185, 1791228719975802327
-0.060738563537597656, -0.09723258018493652, 0.428113035986211, 1791228719999214461
0.15377473831176758, 0.17779237031936646, 0.5642235766861451, 1791228720025915065
0.10637497901916504, 0.1713559627532959, 0.4947037743420175, 1791228720055922505
-0.22573840618133545, 0.1800416111946106, 0.5033118590680653, 1791228720084991325
-0.36971569061279297, -0.02867734432220459, 0.5058141134338076, 1791228720115971718
0.44787102937698364, 0.43357545137405396, 0.5225894176303241, 1791228720146029763
-0.11486905813217163, -0.036820054054260254, 0.4953153606315505, 1791228720176086198
-0.15945720672607422, -0.05101287364959717, 0.49692807468840416, 1791228720206738080
-0.05664545297622681, 0.03495681285858154, 0.47443327967339843, 1791228720239364073
-0.16837966442108154, 0.25921565294265747, 0.5656308065601642, 1791228720266657168
-0.02480262517929077, 0.12196105718612671, 0.5007585289923472, 1791228720296331875
0.22868818044662476, 0.369820773601532, 0.48982827600965295, 1791228720326352504
0.03322315216064453, -0.13157975673675537, 0.4957562033002482, 1791228720356413109
-0.2929319143295288, 0.12332707643508911, 0.4951657849509096, 1791228720416528128
-0.29565149545669556, 0.18654918670654297, 0.48395444592322145, 1791228720447624069
0.17989104986190796, 0.198150634765625, 0.476842426717437, 1791228720479423120
0.417622447013855, 0.386898398399353, 0.5605027196329682, 1791228720506949959
-0.20834672451019287, 0.04835045337677002, 0.5058620166852208, 1791228720536887475
-0.028500795364379883, -0.16811245679855347, 0.5133554297162144, 1791228720566691046
0.12120682001113892, 0.0029188990592956543, 0.5124582294362648, 1791228720596784980
-0.5058497786521912, 0.06633192300796509, 0.4942363735571694, 1791228720626777143
0.020166218280792236, 0.35293304920196533, 0.4883347215519904, 1791228720656877801
-0.5833259224891663, -0.2509705424308777, 0.4738558849754453, 1791228720687065499
0.7355119585990906, 0.17610234022140503, 0.46537402879721557, 1791228720718778160
-0.24615055322647095, 0.09691888093948364, 0.4826964571643609, 1791228720749578798
0.5080320239067078, 0.2166154980659485, 0.5690396246339923, 1791228720776088653
-0.589695394039154, -0.17175281047821045, 0.45938148585229555, 1791228720807139084
0.5126076936721802, 0.002393662929534912, 0.4344468853938398, 1791228720829931638
-0.22411072254180908, 0.3349183201789856, 0.5400875610502655, 1791228720867218628
0.2589033246040344, 0.0728224515914917, 0.5188779405577294, 1791228720897273118
0.12030786275863647, -0.1851344108581543, 0.5019258302319911, 1791228720927347101
0.2870364785194397, 0.3201064467430115, 0.4773437300123393, 1791228720959221329
0.002035081386566162, 0.24613869190216064, 0.47256008088816803, 1791228720990790518
-0.26959365606307983, 0.10722368955612183, 0.5442715528488747, 1791228721017460374
-0.24086004495620728, -0.0022491812705993652, 0.4999999341925759, 1791228721047478756
-0.1404867172241211, 0.0588303804397583, 0.5181283093728677, 1791228721077514957
0.22211313247680664, 0.07143944501876831, 0.4973737636061517, 1791228721107585326
0.09622395038604736, -0.02748030424118042, 0.47852178289317393, 1791228721137597524
0.13814455270767212, 0.23255443572998047, 0.49424667069766404, 1791228721167685649
-0.41357916593551636, 0.40414005517959595, 0.49324702440260426, 1791228721198807214
0.27437829971313477, -0.06610757112503052, 0.4891874600524637, 1791228721230768176
-0.31294822692871094, 0.10991048812866211, 0.540449874800467, 1791228721257900877
0.041939616203308105, 0.08060824871063232, 0.5099386168696595, 1791228721287885951
-0.4806378483772278, 0.023505330085754395, 0.5192806445578494, 1791228721317946163
0.6279025077819824, 0.22298377752304077, 0.5459574166089666, 1791228721346993589
0.029392361640930176, 0.40734201669692993, 0.48671271378838266, 1791228721378214317
0.0873863697052002, -0.2998685836791992, 0.5011034443519217, 1791228721407139412
-0.530846118927002, 0.019165635108947754, 0.4631230660859075, 1791228721438117682
0.21109259128570557, 0.4299326539039612, 0.45084586714821345, 1791228721471431777
-0.23144054412841797, 0.261177122592926, 0.5535887603117872, 1791228721498255300
0.20911043882369995, -0.22779357433319092, 0.4822382111771104, 1791228721528273919
0.02135258913040161, 0.3171742558479309, 0.4915117252659207, 1791228721558307014
0.04811561107635498, 0.551446795463562, 0.4972765327255409, 1791228721588362989
-0.07589614391326904, -0.21890223026275635, 0.5012212405054312, 1791228721618397278
0.04777020215988159, -0.09138429164886475, 0.5060636615467854, 1791228721648553379
-0.20332854986190796, 0.2983936667442322, 0.5115663340776196, 1791228721679149379
0.03660404682159424, 0.2927088141441345, 0.4821458425093034, 1791228721710818506
-0.13125628232955933, 0.08938896656036377, 0.533190824386224, 1791228721738690349
-0.1856154203414917, 0.30740565061569214, 0.4945378863558697, 1791228721768674550
-0.37790411710739136, -0.07664477825164795, 0.5057187600647576, 1791228721798734557
-0.02814650535583496, 0.00453716516494751, 0.5121103263801616, 1791228721828844147
0.08791762590408325, -0.007839024066925049, 0.49328725540989693, 1791228721858851573
-0.14460080862045288, 0.0398784875869751, 0.4846886645387273, 1791228721888954056
-0.15142720937728882, 0.21863329410552979, 0.4791066244537357, 1791228721919707191
0.43479204177856445, -0.008716285228729248, 0.4825936878530109, 1791228721950786019
-0.3155047297477722, 0.3804566264152527, 0.5243600719446997, 1791228721979262780
0.22987127304077148, -0.04534715414047241, 0.5055738813610752, 1791228722009124744
-0.6393594741821289, 0.23937350511550903, 0.5079440537553831, 1791228722039132646
0.26211845874786377, 0.11489659547805786, 0.5419703189544066, 1791228722068216281
-0.05758810043334961, -0.012888848781585693, 0.4876243618820948, 1791228722099203122
-0.2021775245666504, 0.36143404245376587, 0.5065251378671952, 1791228722129362333
0.23463469743728638, 0.06792473793029785, 0.5038829594550149, 1791228722159315824
-0.3796346187591553, 0.4858422875404358, 0.45756278977646503, 1791228722190818192
0.06209677457809448, -0.22711962461471558, 0.4484727422796333, 1791228722222093313
-0.07134968042373657, 0.22515904903411865, 0.5262131523895296, 1791228722249459357
0.1289343237876892, 0.1469811201095581, 0.5115209840250804, 1791228722279508244
-0.06405037641525269, -0.03579425811767578, 0.4852701269676661, 1791228722309584334
-0.4221761226654053, 0.044204890727996826, 0.4792224626689628, 1791228722339663858
-0.16249346733093262, 0.21806472539901733, 0.5108709595561337, 1791228722369678536
0.11954361200332642, 0.487743616104126, 0.500935821835453, 1791228722400383795
0.0982065200805664, -0.07061290740966797, 0.4842528000413293, 1791228722431269404
0.09406888484954834, 0.3164474368095398, 0.4896539505556932, 1791228722461993582
-0.5329479575157166, 0.02721935510635376, 0.5428820146601131, 1791228722490453655
-0.09316235780715942, 0.25961834192276, 0.5128973035563841, 1791228722520409045
-0.00817781686782837, -0.10007548332214355, 0.49350469492431565, 1791228722550522120
-0.2017342448234558, -0.06116408109664917, 0.4996227920296276, 1791228722580480735
0.30771976709365845, 0.35429561138153076, 0.5089689955370813, 1791228722610613421
0.0016834735870361328, 0.371368408203125, 0.5116924610300714, 1791228722640074502
-0.055902838706970215, 0.1823095679283142, 0.45876469182221885, 1791228722671101638
-0.004971444606781006, 0.009517073631286621, 0.45391045110866257, 1791228722703165585
-0.29846757650375366, 0.07340562343597412, 0.5810747150854788, 1791228722730264988
0.03502446413040161, 0.17702573537826538, 0.5331111418435288, 1791228722760299833
0.2013569474220276, 0.021206259727478027, 0.4857048632303497, 1791228722790402136
-0.20953971147537231, 0.178871750831604, 0.486005095861346, 1791228722820418848
0.003504633903503418, 0.13039910793304443, 0.49828191867528104, 1791228722850458573
-0.46374863386154175, 0.35982465744018555, 0.49255508069369885, 1791228722880564532
0.32963019609451294, 0.008191525936126709, 0.46708135876820744, 1791228722910855914
-0.0463830828666687, 0.20540857315063477, 0.4390237338807801, 1791228722943655657
0.7532166838645935, 0.04392057657241821, 0.5671688233446651, 1791228722970658910
-0.44438010454177856, 0.2724173665046692, 0.49171984014901615, 1791228723000877324
-0.03457742929458618, -0.2921474575996399, 0.49644230019952396, 1791228723030700178
-0.26808977127075195, 0.1991404891014099, 0.48480786117086355, 1791228723060774390
0.5023624897003174, 0.433093786239624, 0.4972262811821711, 1791228723090799141
-0.26958680152893066, 0.008606255054473877, 0.506979049798175, 1791228723120826431
0.15419477224349976, 0.40571749210357666, 0.5180876392351272, 1791228723151129385
-0.18727803230285645, 0.23143243789672852, 0.49345152730255076, 1791228723183056315
0.29326313734054565, 0.19971930980682373, 0.4960382493591698, 1791228723213634604
0.1318712830543518, -0.09821492433547974, 0.5559630831987066, 1791228723241051494
-0.19325101375579834, -0.1381635069847107, 0.5008003985581241, 1791228723271139129
-0.2984538674354553, 0.2781469225883484, 0.504684966088089, 1791228723301186116
0.4630129337310791, 0.19836723804473877, 0.4980376172094774, 1791228723331268196
-0.08088493347167969, 0.08962410688400269, 0.48889876867986887, 1791228723361326303
-0.15882617235183716, 0.08873432874679565, 0.49889663159234166, 1791228723391475636
-0.05245155096054077, 0.06976151466369629, 0.4839710232018313, 1791228723422953318
0.09068739414215088, 0.47902441024780273, 0.48326371344481345, 1791228723453397390
-0.1499611735343933, 0.2756407856941223, 0.5103048222316281, 1791228723491591015
0.2323126196861267, 0.0992579460144043, 0.5014503292683778, 1791228723521497744
-0.6490917801856995, 0.4308983087539673, 0.4975966686003515, 1791228723551569247
0.18967962265014648, -0.03768283128738403, 0.46986303339448043, 1791228723583535579
-0.06068688631057739, 0.08088767528533936, 0.4915038879134238, 1791228723614475045
0.5258862972259521, 0.3586711287498474, 0.5762864588389325, 1791228723641750467
0.15038269758224487, 0.17625296115875244, 0.4979707638729277, 1791228723671769979
-0.27173298597335815, -0.031325459480285645, 0.48078013581456974, 1791228723701812748
0.0641830563545227, 0.1278032660484314, 0.48147603398155503, 1791228723731850458
0.08855319023132324, -0.005738317966461182, 0.5146014074227319, 1791228723762140442
-0.0502244234085083, 0.3029741644859314, 0.5353294060353757, 1791228723791010771
0.134571373462677, 0.07062911987304688, 0.4557825249933567, 1791228723823778295
0.35159122943878174, 0.33998411893844604, 0.5101005066912756, 1791228723854006080
0.24941802024841309, 0.12919586896896362, 0.5308400632298852, 1791228723882208266
-0.36039572954177856, 0.44977957010269165, 0.48381295927684304, 1791228723912157816
0.16099393367767334, 0.16504687070846558, 0.5149396559053657, 1791228723941213472
-0.28214168548583984, -0.07267016172409058, 0.5204714899804929, 1791228723971261878
-0.1608765721321106, 0.06222093105316162, 0.48833125033034736, 1791228724002295655
-0.14656198024749756, 0.14715129137039185, 0.5047144406328893, 1791228724032329456
0.17865949869155884, 0.2732126712799072, 0.500942751645359, 1791228724063035798
0.057736098766326904, -0.05621445178985596, 0.45972196108143537, 1791228724095581139
-0.4143422245979309, 0.21301352977752686, 0.5408163365004293, 1791228724122529542
-0.5009837746620178, 0.05710321664810181, 0.49116746593001737, 1791228724152563298
0.526201605796814, 0.03311830759048462, 0.49048815236179677, 1791228724182598136
-0.3375133275985718, 0.41227781772613525, 0.4728698910566452, 1791228724212665075
0.11290383338928223, -0.015980243682861328, 0.4846839319997058, 1791228724242700532
0.2715409994125366, 0.07002663612365723, 0.5075167763694046, 1791228724272768538
0.1310570240020752, 0.3566403388977051, 0.5118190645405197, 1791228724303040915
0.2842012047767639, 0.17105209827423096, 0.47804705810786546, 1791228724335035776
-0.41412127017974854, -0.05273246765136719, 0.49006651799673495, 1791228724365024213
-0.46343332529067993, 0.33749961853027344, 0.5282071553243387, 1791228724402958460
-0.2865143418312073, 0.13252925872802734, 0.5095451452173174, 1791228724431989857
0.2665155529975891, 0.19987976551055908, 0.4836875839679455, 1791228724463063053
0.020034193992614746, -0.22267526388168335, 0.47393979240913076, 1791228724495334595
0.2235817313194275, 0.28566116094589233, 0.5124101922113058, 1791228724524734697
0.0965653657913208, 0.0628739595413208, 0.519371331240161, 1791228724553214955
-0.2619115710258484, -0.02941960096359253, 0.5088599100411066, 1791228724582316210
-0.13907665014266968, 0.21370172500610352, 0.501517738856317, 1791228724613301646
0.07283687591552734, 0.37619614601135254, 0.5245778655510961, 1791228724643340630
0.3422222137451172, 0.16503280401229858, 0.5098317391213747, 1791228724673425162
-0.6643149852752686, -0.006675362586975098, 0.4869155428492889, 1791228724703486201
0.13222432136535645, 0.43100786209106445, 0.47898253899628124, 1791228724735472937
0.6778531670570374, 0.5145691633224487, 0.49200040015952745, 1791228724766968435
-0.09241652488708496, -0.529110312461853, 0.5253776469022245, 1791228724793724576
0.10572147369384766, -0.09272372722625732, 0.4889975318914903, 1791228724823901370
-0.2142336368560791, 0.49529844522476196, 0.49872563466836295, 1791228724853752756
0.3307585120201111, 0.3288612365722656, 0.4685681526728916, 1791228724883755259
0.1787322759628296, -0.252341628074646, 0.46956849636127523, 1791228724913774563
0.08672964572906494, 0.2882276773452759, 0.507061857216355, 1791228724943879432
-0.3124637007713318, 0.38092929124832153, 0.48012515188422883, 1791228724975125906
0.44173377752304077, 0.021456778049468994, 0.45644451510297984, 1791228725007054276
0.14624637365341187, 0.3969763517379761, 0.5474002037803364, 1791228725034026346
-0.11336815357208252, 0.041094303131103516, 0.4977801533571927, 1791228725064028286
-0.3277852535247803, -0.05860835313796997, 0.49680270703425783, 1791228725094042212
0.04969334602355957, -0.0938531756401062, 0.5104104803558696, 1791228725124103724
0.006941020488739014, 0.4181565046310425, 0.5211635681038634, 1791228725154159658
-0.016037821769714355, 0.19511598348617554, 0.4868185032489429, 1791228725184260082
-0.0496903657913208, 0.0983043909072876, 0.488570825072411, 1791228725215057175
-0.6411541104316711, 0.30816709995269775, 0.46667817413581625, 1791228725247751884
0.3419417142868042, 0.28341144323349, 0.5762726475192301, 1791228725274422943
0.2269846796989441, 0.30844300985336304, 0.5228962402000614, 1791228725304421513
-0.09216201305389404, -0.013673722743988037, 0.5149014447924554, 1791228725334453818
-0.04905039072036743, 0.27740252017974854, 0.5244811248218062, 1791228725364589557
0.05827665328979492, 0.5361552238464355, 0.507311215049489, 1791228725394553219
-0.3025246858596802, -0.4746657609939575, 0.46969208561384884, 1791228725424691942
-0.11380290985107422, 0.10912734270095825, 0.4749079123919122, 1791228725455405984
0.26833271980285645, 0.49283891916275024, 0.4637425525875593, 1791228725486952042
-0.5070278644561768, 0.2412194013595581, 0.5069437459739172, 1791228725514808434
0.5603317618370056, 0.01656055450439453, 0.44593309719962854, 1791228725545550351
0.05004382133483887, -0.011795639991760254, 0.49353467822321345, 1791228725575604838
-0.11978381872177124, 0.10548603534698486, 0.50415292792615, 1791228725605583146
-0.22964799404144287, 0.4996904730796814, 0.493061197235818, 1791228725635570081
-0.1413794755935669, -0.3015094995498657, 0.499422305494182, 1791228725665701830
0.04874831438064575, 0.026571810245513916, 0.5341020599427051, 1791228725695640417
0.0667257308959961, 0.5594202876091003, 0.4907946483861401, 1791228725727418226
0.3445250391960144, -0.10945987701416016, 0.4950942412478071, 1791228725757223427
-0.1465415358543396, 0.17943120002746582, 0.5200307658699116, 1791228725795671385
0.2549256682395935, -0.1228175163269043, 0.4764984634228667, 1791228725825724591
-0.2552623152732849, -0.052769601345062256, 0.4890024116239132, 1791228725855780462
-0.0035276412963867188, 0.2430517077445984, 0.4815092282020418, 1791228725887566459
-0.015094578266143799, 0.17483824491500854, 0.49870684416630284, 1791228725918155881
-0.09017759561538696, 0.194011390209198, 0.5453930757705951, 1791228725945768059
-0.18457549810409546, 0.2865419387817383, 0.5164742373241286, 1791228725975741296
0.06569093465805054, -0.028431355953216553, 0.5190816591566703, 1791228726005796193
-0.15468353033065796, 0.4260370135307312, 0.505355958162193, 1791228726035849702
-0.06924355030059814, 0.11363136768341064, 0.5009584309037605, 1791228726065890874
0.07096332311630249, 0.09463727474212646, 0.4817312877277094, 1791228726095907394
0.13631856441497803, 0.2300703525543213, 0.47812632642902053, 1791228726127055871
0.40726321935653687, 0.24633628129959106, 0.4486411543515761, 1791228726159232541
-0.2239568829536438, -0.07125455141067505, 0.560098177341614, 1791228726184976978
0.4789619445800781, 0.22448241710662842, 0.4759856790903278, 1791228726216048000
-0.13756859302520752, 0.37211883068084717, 0.480505130523937, 1791228726246047394
0.06054121255874634, 0.5834774971008301, 0.48970461672281773, 1791228726276264278
-0.22718548774719238, 0.18901515007019043, 0.5213127296890216, 1791228726306232558
0.023247122764587402, -0.061560094356536865, 0.501305777856766, 1791228726336312238
0.061509668827056885, 0.30730754137039185, 0.5052991010879362, 1791228726367083045
-0.4292409420013428, 0.4203983545303345, 0.47877730657056955, 1791228726399709465
0.23125743865966797, 0.11853235960006714, 0.5632034819312488, 1791228726426366451
-0.07658666372299194, 0.23213660717010498, 0.4803166849470489, 1791228726456286196
-0.057388484477996826, 0.20675349235534668, 0.5006136571202706, 1791228726485318282
-0.1236533522605896, 0.06111520528793335, 0.4923028830279878, 1791228726516372761
0.0002321004867553711, 0.46764618158340454, 0.49215360316472523, 1791228726546445470
0.1343909502029419, 0.09830337762832642, 0.45674542501577287, 1791228726576477901
0.00764232873916626, -0.2583780884742737, 0.5038524454531368, 1791228726607063726
-0.01591336727142334, 0.5836143493652344, 0.5051509667934844, 1791228726639279848
0.06655514240264893, -0.0388256311416626, 0.5503003738153862, 1791228726666722421
-0.5270891785621643, 0.09181994199752808, 0.4994089429645526, 1791228726696727262
0.22189849615097046, 0.07126259803771973, 0.5036531998291001, 1791228726726748732
0.017385005950927734, 0.30856019258499146, 0.4734467544314765, 1791228726756838575
0.1991247534751892, -0.023745417594909668, 0.463138616311619, 1791228726786840081
-0.1723768711090088, -0.03411269187927246, 0.49415294890151173, 1791228726816924998
0.3702017068862915, 0.29896533489227295, 0.4835982071420693, 1791228726848208220
0.21507668495178223, 0.3307325839996338, 0.47588472941343246, 1791228726879100183
0.05036795139312744, -0.28947949409484863, 0.49275002691751474, 1791228726909305954
0.16798311471939087, 0.09331130981445312, 0.5484651759136544, 1791228726937057023
0.025600075721740723, 0.4908512234687805, 0.50688050733385, 1791228726967100675
-0.24380171298980713, -0.4126872420310974, 0.48004697533041135, 1791228726997161307
0.14165055751800537, 0.16093134880065918, 0.499335638176549, 1791228727027197765
-0.09419703483581543, 0.42308592796325684, 0.5171724300452274, 1791228727057296481
-0.30019062757492065, -0.25375837087631226, 0.5119640004330104, 1791228727087331976
0.3028954267501831, 0.191827654838562, 0.5048435788193728, 1791228727118089601
-0.5162928700447083, -0.0037811994552612305, 0.478604265353848, 1791228727149924402
-0.2583398222923279, -0.03967618942260742, 0.5368646806499953, 1791228727177486064
-0.017718493938446045, 0.08088088035583496, 0.4809135317462872, 1791228727207539970
0.16825199127197266, 0.009276270866394043, 0.49927893717742816, 1791228727237568884
0.20129215717315674, 0.09576737880706787, 0.5041292975611334, 1791228727267636834
0.5383391976356506, 0.3243216872215271, 0.5014088207126693, 1791228727297707394
0.14592206478118896, 0.010989606380462646, 0.5022739032021578, 1791228727327779727
-0.38158130645751953, 0.2580243945121765, 0.4782322995430187, 1791228727359855761
0.555716335773468, -0.0014944672584533691, 0.47292447196035714, 1791228727391081009
0.0981864333152771, 0.15938591957092285, 0.5663865892680853, 1791228727417924382
-0.2161310911178589, 0.10230082273483276, 0.50536598533049, 1791228727447876746
-0.0987173318862915, -0.02945077419281006, 0.4313398567556283, 1791228727471080446
0.06914776563644409, -0.06625872850418091, 0.5815584631119036, 1791228727496982745
0.4705590009689331, 0.5604215264320374, 0.48771618720794, 1791228727527003582
-0.037962138652801514, -0.023331522941589355, 0.3901335097534155, 1791228727551526133
-0.06765604019165039, 0.09533119201660156, 0.5535147365830319, 1791228727578155199
-0.20995265245437622, 0.006190359592437744, 0.5122769684562734, 1791228727608173146
0.6109934449195862, 0.34841543436050415, 0.5004552070428872, 1791228727638225566
0.010193943977355957, 0.2555782198905945, 0.494567550717746, 1791228727668318584
-0.042131006717681885, 0.39540761709213257, 0.5010569912908472, 1791228727698624565
0.20778030157089233, 0.0492781400680542, 0.5261544220847282, 1791228727728472715
-0.3484625816345215, 0.22960162162780762, 0.49026414319950073, 1791228727759146541
-0.5242187976837158, 0.1536683440208435, 0.4648338908886601, 1791228727791060292
0.24454528093338013, 0.06666415929794312, 0.5620755756484959, 1791228727818585127
0.5989710688591003, 0.4887990355491638, 0.49979335602909314, 1791228727848551964
0.022673189640045166, 0.09189146757125854, 0.4730022938159084, 1791228727878618902
0.2250688672065735, -0.012411236763000488, 0.4983539435138459, 1791228727908629879
-0.09454011917114258, 0.522159218788147, 0.49559810392048054, 1791228727938695509
-0.04732102155685425, 0.1214897632598877, 0.484999013184684, 1791228727968767064
-0.1317387819290161, -0.29540449380874634, 0.49432957261029803, 1791228727999508281
0.3465096354484558, 0.5045978426933289, 0.49367844474980543, 1791228728031179536
-0.022529184818267822, 0.28378385305404663, 0.532730862348672, 1791228728059034707
-0.3268905282020569, -0.29603075981140137, 0.493107409445487, 1791228728088938712
0.21629482507705688, 0.4100651741027832, 0.525835210964552, 1791228728118073526
-0.2964485287666321, 0.4702158570289612, 0.4839268664688295, 1791228728149112353
0.07269167900085449, -0.3989436626434326, 0.48280205710719615, 1791228728179254227
-0.3339300751686096, 0.3765047788619995, 0.49629088569549273, 1791228728209202904
0.5923332571983337, 0.18876194953918457, 0.5117993587533534, 1791228728239368278
-0.04753917455673218, 0.11525613069534302, 0.472336740355323, 1791228728271466033
-0.12905961275100708, -0.1287752389907837, 0.4843444974007428, 1791228728301473868
-0.48288220167160034, 0.047133445739746094, 0.5447043780279333, 1791228728329343001
-0.03992259502410889, 0.4607008099555969, 0.5306382188798042, 1791228728359406705
0.019905507564544678, -0.154249370098114, 0.5079204710469375, 1791228728389421072
-0.18235301971435547, 0.22720378637313843, 0.4878969872448024, 1791228728419480609
0.338018536567688, 0.027748942375183105, 0.46541073630749824, 1791228728449540779
-0.2963602542877197, 0.19756335020065308, 0.46451650926760457, 1791228728479594162
-0.1983698606491089, -0.054527878761291504, 0.4549817831817916, 1791228728511508528
0.14130759239196777, 0.2775309681892395, 0.4863631915858139, 1791228728542446085
0.1431572437286377, -0.06428945064544678, 0.5418279009829794, 1791228728569772111
-0.05651688575744629, 0.05233418941497803, 0.5100738630512446, 1791228728599793108
0.6484543085098267, 0.6112214922904968, 0.5024303542748284, 1791228728629915243
-0.20399171113967896, -0.15958178043365479, 0.5110089711750799, 1791228728659890626
-0.04439866542816162, 0.12979578971862793, 0.5159426946212746, 1791228728689926911
-0.1963287591934204, 0.25682759284973145, 0.5025030288565138, 1791228728720039856
0.02676844596862793, 0.21624577045440674, 0.4785999405848183, 1791228728751444925
-0.23504424095153809, -0.12546437978744507, 0.47195774412587066, 1791228728783404307
0.61104416847229, 0.3418133854866028, 0.5564840761146573, 1791228728810126994
-0.02359795570373535, 0.293265163898468, 0.48001697420623995, 1791228728840245258
0.2605556845664978, 0.1206369400024414, 0.49486438916116404, 1791228728870254881
-0.008333563804626465, 0.31873053312301636, 0.5226665307773425, 1791228728900257145
0.25136542320251465, 0.06453263759613037, 0.508755667602762, 1791228728930280525
-0.43628108501434326, 0.09978872537612915, 0.49292785630481445, 1791228728960384747
-0.18619298934936523, 0.3381476402282715, 0.49575726407211934, 1791228728991142754
0.1770421862602234, 0.5540810227394104, 0.47944851731051674, 1791228729022810537
-0.614556074142456, 0.30877095460891724, 0.534643729891066, 1791228729060548017
0.07194221019744873, -0.28924351930618286, 0.5019770667228041, 1791228729090593431
-0.3758894205093384, 0.7797120213508606, 0.46992041524360595, 1791228729120696944
0.3746711015701294, 0.26983189582824707, 0.47360221845261374, 1791228729151558047
0.07829993963241577, 0.6764071583747864, 0.49264157755660437, 1791228729183434135
0.49028122425079346, -0.2421562671661377, 0.5440993535939948, 1791228729210885978
0.17573899030685425, 0.2768017649650574, 0.49004836266307183, 1791228729240931187
0.15085768699645996, 0.7383739352226257, 0.5065991120640471, 1791228729270892953
-0.5169521570205688, 0.004869401454925537, 0.5095208938736336, 1791228729300930329
0.1498541235923767, -0.25992351770401, 0.49378759216533147, 1791228729330949809
0.06307810544967651, 0.41516345739364624, 0.4754496452353579, 1791228729361031294
-0.07317304611206055, 0.0017873048782348633, 0.4776773907089754, 1791228729391471236
-0.28416329622268677, 0.07238048315048218, 0.4532111248201846, 1791228729423832590
-0.039936184883117676, 0.2591589689254761, 0.5355726161270796, 1791228729451197507
0.38089364767074585, -0.11858093738555908, 0.5136544604966227, 1791228729481223436
-0.4669860601425171, 0.1683492660522461, 0.5148485144649253, 1791228729511255880
-0.3531322479248047, -0.04450958967208862, 0.45069697895335165, 1791228729533369761
-0.3693941831588745, 0.05791503190994263, 0.5521864550293532, 1791228729561370742
0.2223312258720398, 0.4586808681488037, 0.5210055281549006, 1791228729591402180
-0.20370125770568848, 0.24566030502319336, 0.4879605223956725, 1791228729621433623
-0.0793919563293457, -0.5273642539978027, 0.5093524350483966, 1791228729650513156
-0.09062820672988892, 0.681520938873291, 0.4809833966827064, 1791228729681531927
-0.10992717742919922, 0.26536494493484497, 0.45133618254516294, 1791228729711637026
0.3155860900878906, -0.17076683044433594, 0.4534541196841908, 1791228729743701716
-0.221607506275177, 0.13672900199890137, 0.48259830352941674, 1791228729774483473
-0.31126677989959717, 0.245868980884552, 0.5369521574067817, 1791228729801784654
-0.08750563859939575, 0.3888040781021118, 0.5116293250093515, 1791228729831788764
-0.0873023271560669, 0.24050253629684448, 0.5074589686378919, 1791228729861843208
0.2459089756011963, 0.1218767762184143, 0.5196158352969973, 1791228729891866957
-0.5043680667877197, 0.21855342388153076, 0.5160849559511614, 1791228729921924222
0.6407684087753296, 0.14812946319580078, 0.5119761967950037, 1791228729952127606
-0.26761865615844727, 0.4767744541168213, 0.4863413156928572, 1791228729984215295
0.27913421392440796, -0.22545403242111206, 0.4905461725005453, 1791228730015341635
-0.23797929286956787, 0.1525757908821106, 0.5472863737796895, 1791228730042172893
0.08295965194702148, 0.4154708981513977, 0.4768600162587029, 1791228730072189292
0.19709593057632446, -0.0740920901298523, 0.48190689645930745, 1791228730102248414
0.1732972264289856, -0.026780664920806885, 0.49040188644309113, 1791228730132301812
0.024750053882598877, -0.14611297845840454, 0.4662258230454322, 1791228730162585614
0.12938928604125977, 0.3100574016571045, 0.48905713195364076, 1791228730192411521
-0.10012894868850708, 0.28241807222366333, 0.4828908579827237, 1791228730223583767
-0.2777961492538452, 0.13624614477157593, 0.46929372587497664, 1791228730255320803
0.29071342945098877, -0.0807766318321228, 0.5560353631917987, 1791228730282570426
0.25086313486099243, 0.3502354025840759, 0.509372400841232, 1791228730312610247
0.2106587290763855, 0.13402730226516724, 0.5022893183498319, 1791228730342615651
-0.5931350588798523, 0.26315397024154663, 0.49816834436812035, 1791228730372680540
0.39411109685897827, 0.196358323097229, 0.49668077764201174, 1791228730402700379
-0.3021489381790161, -0.06647336483001709, 0.48317579792373544, 1791228730432775255
0.15357059240341187, 0.06988108158111572, 0.48980944631242346, 1791228730463431390
0.18003392219543457, 0.33810997009277344, 0.47462561793786806, 1791228730495774228
0.78359055519104, -0.31333595514297485, 0.577922748988429, 1791228730521989941
-0.22733628749847412, 0.09246665239334106, 0.4808513614002457, 1791228730553050409
-0.21478086709976196, 0.31505101919174194, 0.5089087493369809, 1791228730583085688
-0.34526526927948, 0.2585258483886719, 0.5020960941620776, 1791228730613242832
0.01945430040359497, -0.04136216640472412, 0.48453506451224837, 1791228730643181081
0.18684542179107666, 0.3228474259376526, 0.48493742416622465, 1791228730673190269
-0.33937644958496094, 0.15845680236816406, 0.4669333217991131, 1791228730703409476
-0.43560028076171875, -0.10539758205413818, 0.47184836725561224, 1791228730735317286
0.2822760343551636, 0.3026037812232971, 0.5392459774208742, 1791228730765483772
0.24041104316711426, 0.45427411794662476, 0.5444704024645075, 1791228730793412495
-0.41442203521728516, -0.23931884765625, 0.4755727439290001, 1791228730823395829
-0.28721779584884644, 0.19693374633789062, 0.45857711375336996, 1791228730844991361
0.37019044160842896, 0.13587474822998047, 0.5305190572645297, 1791228730883469854
-0.26838624477386475, 0.3023573160171509, 0.5173661575290016, 1791228730912554678
0.5471578240394592, 0.2959623336791992, 0.4969593059587755, 1791228730942828223
-0.056200385093688965, 0.30461585521698, 0.4358209170714117, 1791228730975742265
-0.2694580554962158, -0.04064851999282837, 0.48521845975166683, 1791228731006680931
0.5060776472091675, 0.5461710691452026, 0.5568542573334385, 1791228731043763014
-0.059686899185180664, 0.35708892345428467, 0.49090681549104664, 1791228731073841337
-0.08758151531219482, -0.1720280647277832, 0.5131030391948911, 1791228731103914358
0.413662314414978, 0.6068851947784424, 0.5083200756583389, 1791228731135019014
-0.09493160247802734, 0.015783727169036865, 0.4679002579793506, 1791228731167303553
0.15509432554244995, -0.3273909091949463, 0.5573757705907585, 1791228731194068299
0.19530797004699707, 0.5631582140922546, 0.5105282047901598, 1791228731224061105
0.3291622996330261, 0.6966961622238159, 0.49100869668079455, 1791228731254103002
-0.3305622935295105, -0.4632473587989807, 0.48135858423867406, 1791228731284150862
0.04441732168197632, -0.10087603330612183, 0.4921514420378431, 1791228731314189953
-0.06418371200561523, 0.7033107876777649, 0.4945169810959152, 1791228731344278937
0.11659836769104004, 0.021540582180023193, 0.4681104128478779, 1791228731375512199
-0.1687631607055664, 0.09005045890808105, 0.4786536954403299, 1791228731407270828
0.6771413683891296, 0.2106468677520752, 0.5502989099660106, 1791228731434443483
-0.44356709718704224, 0.015226960182189941, 0.47931071098178524, 1791228731464423579
-0.09298831224441528, 0.08932137489318848, 0.48890989876580926, 1791228731494523439
-0.23618388175964355, 0.47699135541915894, 0.5143602550532083, 1791228731524510032
0.10941940546035767, -0.17698174715042114, 0.49815769460088255, 1791228731554583126
-0.03683149814605713, 0.22844278812408447, 0.49066347102691354, 1791228731584772514
-0.3090135455131531, 0.07412636280059814, 0.47571477565301257, 1791228731615399616
0.10045593976974487, -0.14474111795425415, 0.46467621160169964, 1791228731647961729
-0.12819713354110718, 0.4612742066383362, 0.5809557695917916, 1791228731674876006
0.06669819355010986, 0.2918141484260559, 0.505884508687911, 1791228731704871117
-0.42054152488708496, -0.19266670942306519, 0.4967840111978747, 1791228731734909297
-0.2547004818916321, 0.25238704681396484, 0.49929483289531346, 1791228731764961470
0.44607651233673096, 0.30546075105667114, 0.5241517873707704, 1791228731793989037
-0.31559067964553833, 0.14345210790634155, 0.44975417115015953, 1791228731825028427
0.10220754146575928, 0.06368875503540039, 0.4622359963766755, 1791228731855431827
-0.22455543279647827, 0.445850670337677, 0.46348503912635813, 1791228731887597307
-0.18637067079544067, -0.30221372842788696, 0.5238409106010696, 1791228731915219228
-0.03713798522949219, -0.09539365768432617, 0.4998670717294823, 1791228731945925227
0.4669875502586365, 0.6252412796020508, 0.527004042988146, 1791228731975009964
-0.41032111644744873, 0.4205716848373413, 0.49325455920616124, 1791228732005968515
0.3688087463378906, -0.032141029834747314, 0.5308912782411782, 1791228732035006009
-0.255987286567688, 0.25845736265182495, 0.49381872298545476, 1791228732066069107
0.05621880292892456, -0.2662150263786316, 0.5013141165680908, 1791228732096189555
-0.16629445552825928, 0.15003126859664917, 0.4767085865976635, 1791228732127383843
-0.05263936519622803, 0.2730028033256531, 0.486549252513465, 1791228732158058997
-0.1531783938407898, 0.5044033527374268, 0.5242294589835654, 1791228732186076955
0.1260894536972046, 0.1351337432861328, 0.5098929809679532, 1791228732215001878
0.23743927478790283, 0.12601345777511597, 0.5041974596827714, 1791228732246082914
-0.23261386156082153, -0.21486890316009521, 0.5120680567969992, 1791228732276113184
0.13526982069015503, 0.36155956983566284, 0.49819911443121107, 1791228732306280376
0.02175229787826538, 0.046799540519714355, 0.47217288141828095, 1791228732336171873
-0.2973440885543823, 0.2528531551361084, 0.4770870736615128, 1791228732367363041
0.23698002099990845, 0.39620912075042725, 0.4765834283307979, 1791228732399270617
0.030515968799591064, 0.08761322498321533, 0.5227211724943122, 1791228732426355755
0.02677321434020996, 0.04565364122390747, 0.496973501683979, 1791228732456255401
0.10052603483200073, 0.2685225009918213, 0.5105496991924291, 1791228732486261678
-0.10969728231430054, 0.07461172342300415, 0.4911689177177773, 1791228732516259349
-0.41053450107574463, 0.2902933359146118, 0.5061403566981753, 1791228732546282826
-0.31581902503967285, 0.10764497518539429, 0.5141010755540276, 1791228732576297913
0.02388244867324829, 0.1972442865371704, 0.4800317437176414, 1791228732607800697
-0.14463210105895996, -0.046671390533447266, 0.4716965402064817, 1791228732639318434
-0.03988999128341675, 0.09716218709945679, 0.545665705885048, 1791228732666512564
-0.2261252999305725, 0.4661685824394226, 0.4932068505860937, 1791228732696485154
-0.06728416681289673, 0.23842257261276245, 0.4966146774907289, 1791228732726520297
0.6420271992683411, -0.29009395837783813, 0.4816423465326094, 1791228732756561822
-0.15533548593521118, 0.17492765188217163, 0.49684255439807984, 1791228732786609449
-0.3386605381965637, 0.333651065826416, 0.533727841880893, 1791228732815654098
0.4657599925994873, 0.22158437967300415, 0.5081105004442916, 1791228732846325982
-0.29569995403289795, 0.04747074842453003, 0.4493917041820772, 1791228732879613460
0.5128921270370483, 0.6225383281707764, 0.5485155740828139, 1791228732906957379
0.19379264116287231, 0.22389084100723267, 0.4824778261514373, 1791228732936826284
0.700776994228363, -0.3627239465713501, 0.4771041770751142, 1791228732966874891
-0.0012257099151611328, 0.17249077558517456, 0.5198843436269045, 1791228732996000045
0.3477276563644409, 0.576367974281311, 0.48134443157784185, 1791228733025999247
-0.3339993953704834, 0.20468270778656006, 0.46527828480555417, 1791228733057428139
0.39709752798080444, 0.21582400798797607, 0.5100041684486867, 1791228733087365799
-0.0909227728843689, 0.5334758162498474, 0.4557674549030637, 1791228733120018226
-0.35523760318756104, -0.39439165592193604, 0.5711092793902323, 1791228733147229009
0.21792030334472656, 0.4977700114250183, 0.5121244677685575, 1791228733177217738
-0.32687830924987793, 0.2107830047607422, 0.4822506604611246, 1791228733207340846
-0.12816131114959717, 0.0654369592666626, 0.44112115375747796, 1791228733229512901
0.11793637275695801, 0.43575358390808105, 0.5410447816467407, 1791228733257686265
-0.09545940160751343, -0.12379235029220581, 0.49713403097635445, 1791228733287423152
0.24753761291503906, 0.34907931089401245, 0.4373513904543148, 1791228733309663124
-0.2974764108657837, 0.26219791173934937, 0.5290489703295389, 1791228733347483615
0.21142882108688354, 0.6667649745941162, 0.4898301239656905, 1791228733377549384
0.1308233141899109, 0.20298683643341064, 0.48110524173079067, 1791228733407663804
-0.28224658966064453, -0.17803198099136353, 0.46193466567322716, 1791228733439781076
0.19609463214874268, 0.37025344371795654, 0.48889364064250745, 1791228733470536502
-0.32511043548583984, 0.3554668426513672, 0.5748202385196537, 1791228733496999934
0.299205482006073, 0.03196513652801514, 0.4919223180024301, 1791228733526981581
-0.5634023547172546, -0.09451907873153687, 0.4662198577015796, 1791228733557888090
-0.3837994933128357, 0.22329175472259521, 0.5039083003206537, 1791228733587950085
-0.4292066693305969, 0.49633777141571045, 0.5136759335889638, 1791228733617953450
-0.191997230052948, 0.029045581817626953, 0.48989526597491584, 1791228733648077154
0.25790655612945557, 0.6539074778556824, 0.4977627937831058, 1791228733679672922
0.007312178611755371, -0.24236154556274414, 0.5029251713912707, 1791228733711195630
-0.14296472072601318, 0.09911990165710449, 0.5462459306803306, 1791228733738245831
-0.15577012300491333, 0.5427073240280151, 0.4818594075983363, 1791228733768189889
0.13556480407714844, -0.0804985761642456, 0.4150369578768888, 1791228733791570139
-0.22841429710388184, -0.0945432186126709, 0.5217691899784067, 1791228733828280227
0.0030465126037597656, 0.540763258934021, 0.47569950458082166, 1791228733858359356
0.14939755201339722, 0.31274765729904175, 0.48793353551810226, 1791228733888404210
-0.4762403964996338, 0.12328898906707764, 0.4760059919725353, 1791228733919741476
-0.024537265300750732, -0.15725994110107422, 0.47371996493987134, 1791228733952566565
-0.0063738226890563965, 0.17321979999542236, 0.5680039117867094, 1791228733978619382
-0.08794152736663818, 0.16972529888153076, 0.49735813940082374, 1791228734008595213
0.26605767011642456, 0.19567298889160156, 0.5277371026401823, 1791228734038631048
-0.2555848956108093, 0.3680456876754761, 0.5212669468962489, 1791228734067710905
0.10906749963760376, 0.10263323783874512, 0.48951490072797216, 1791228734097733192
-0.12211841344833374, 0.07097780704498291, 0.4590467077563558, 1791228734128788755
-0.16427582502365112, 0.22513532638549805, 0.46801055220433685, 1791228734159409123
0.08674997091293335, 0.2660609483718872, 0.480727537116564, 1791228734191626193
0.23637443780899048, -0.21560609340667725, 0.5669089861831483, 1791228734218046888
-0.1212930679321289, 0.2483721375465393, 0.48947350076154433, 1791228734248969438
-0.27675288915634155, 0.4420776963233948, 0.5361513327313729, 1791228734278084262
-0.0004647374153137207, 0.3657571077346802, 0.48720991162088484, 1791228734309125237
-0.1365368366241455, 0.044324636459350586, 0.4848050105805255, 1791228734339191619
0.1622108817100525, 0.21577483415603638, 0.5174919512439523, 1791228734369231697
0.07112598419189453, 0.015300273895263672, 0.47519999917899725, 1791228734399848033
0.08510828018188477, 0.32688337564468384, 0.444751020235604, 1791228734431438550
-0.16722923517227173, -0.031059980392456055, 0.5316859618260252, 1791228734459379303
0.15195059776306152, -0.0835466980934143, 0.492377673246103, 1791228734489357201
-0.0033549070358276367, 0.28989177942276, 0.49855499932549785, 1791228734519400757
0.3268470764160156, 0.5856626629829407, 0.50383424686684, 1791228734549504151
-0.6902714967727661, 0.02003389596939087, 0.4909540576215576, 1791228734579551148
-0.1323336362838745, 0.13492071628570557, 0.5089379639868947, 1791228734609564096
0.10978907346725464, 0.253337562084198, 0.5076834317097607, 1791228734639632279
0.17566490173339844, 0.24528199434280396, 0.4630217747943754, 1791228734671451287
0.002623438835144043, 0.3222874402999878, 0.4981655769075221, 1791228734701744258
-0.041224002838134766, -0.3027520775794983, 0.5450639906502459, 1791228734728763909
-0.24546802043914795, 0.5044307708740234, 0.49074621759119497, 1791228734759819083
-0.06595993041992188, 0.6026919484138489, 0.5243531261815595, 1791228734789833579
-0.1871233582496643, 0.10297101736068726, 0.5010387432772202, 1791228734819958055
0.10515022277832031, -0.03234356641769409, 0.5034491045693266, 1791228734850042436
-0.033588290214538574, 0.41895776987075806, 0.5225706898975878, 1791228734880090309
-0.20550376176834106, -0.09379357099533081, 0.45239564946087096, 1791228734912152171
0.14728736877441406, 0.1697198748588562, 0.4491546731181835, 1791228734943134590
0.2759586572647095, 0.6375026106834412, 0.5081481144776065, 1791228734970194885
-0.16612333059310913, -0.47105878591537476, 0.4632920761442061, 1791228735000232373
-0.3548375964164734, -0.04254460334777832, 0.5136661702088314, 1791228735030239289
0.4947918653488159, 0.0761878490447998, 0.5392448791501141, 1791228735061052506
0.35014694929122925, 0.4263402819633484, 0.5426858486019058, 1791228735090951057
-0.1487370729446411, 0.08332991600036621, 0.5107314856032789, 1791228735120006871
-0.3724607229232788, 0.4034665822982788, 0.44770178288055607, 1791228735151464222
0.5409544110298157, 0.19393068552017212, 0.44984991290483595, 1791228735183598596
-0.004406571388244629, 0.16314798593521118, 0.529561399160569, 1791228735211088647
-0.1809391975402832, 0.36370670795440674, 0.4721151196631269, 1791228735241095647
-0.5233006477355957, -0.11027324199676514, 0.4204135140395999, 1791228735263564987
-0.0721977949142456, 0.4071929454803467, 0.5610894470900822, 1791228735291376452
-0.2529370188713074, 0.45265430212020874, 0.5333121407730455, 1791228735321139611
-0.03700888156890869, -0.013864457607269287, 0.5201883385935924, 1791228735351189352
0.11639529466629028, 0.5642988681793213, 0.5042997877591754, 1791228735381194999
0.2886727452278137, 0.19042223691940308, 0.47539825128384033, 1791228735411343391
-0.086800217628479, -0.33170974254608154, 0.48179135242586657, 1791228735441211357
0.15396904945373535, 0.8440749645233154, 0.4647059796173282, 1791228735472240732
-0.07152062654495239, -0.19685333967208862, 0.45568822479095106, 1791228735504079942
-0.07267767190933228, 0.0024416446685791016, 0.5809774546118166, 1791228735531434438
0.06950634717941284, 0.3293362259864807, 0.5167090434282853, 1791228735561400498
0.019984841346740723, 0.3762625455856323, 0.4904520856349541, 1791228735591361484
0.3656141757965088, 0.06697821617126465, 0.4882745853487268, 1791228735621374856
-0.03179579973220825, 0.8019640445709229, 0.490256839297771, 1791228735651403835
0.33790016174316406, 0.15082484483718872, 0.4816141624642327, 1791228735681330097
-0.17720210552215576, -0.12143105268478394, 0.4890849068960885, 1791228735712223778
-0.16734051704406738, 0.39652585983276367, 0.47088265587357514, 1791228735744028045
0.277701199054718, 0.3426690697669983, 0.5315531751621808, 1791228735771525853
-0.04047447443008423, -0.031114578247070312, 0.48009914394554987, 1791228735801503475
-0.13619571924209595, -0.10425150394439697, 0.4906749530873781, 1791228735831526966
-0.3350287675857544, 0.3204275965690613, 0.49804858801414864, 1791228735851603845
0.23288679122924805, 0.19457536935806274, 0.48770230383909163, 1791228735891634608
-0.4208018183708191, 0.31139373779296875, 0.4907210036814595, 1791228735921727055
0.26442426443099976, -5.793571472167969e-05, 0.4973330931215934, 1791228735951783123
-0.4436902403831482, 0.14093387126922607, 0.45487061973658127, 1791228735982704313
-0.25926345586776733, 0.491626501083374, 0.4545313383202982, 1791228736014313613
-0.1516261100769043, 0.43306678533554077, 0.5443696640350835, 1791228736041968169
-0.3066496253013611, 0.3892771601676941, 0.5099104984557316, 1791228736071957280
0.4161022901535034, 0.0880666971206665, 0.5112585797050794, 1791228736102029133
-0.0673932433128357, 0.315504789352417, 0.5019643529189559, 1791228736132067291
-0.023606598377227783, -0.4602404236793518, 0.506584820498752, 1791228736162115053
0.3106832504272461, 0.44547039270401, 0.5175712848434934, 1791228736192210965
-0.07914388179779053, 0.28543710708618164, 0.4636961764548993, 1791228736223669883
-0.48706918954849243, -0.16926389932632446, 0.45845960509853273, 1791228736255511024
0.4270792603492737, 0.02759873867034912, 0.5443262352408784, 1791228736282313846
-0.12514770030975342, 0.7290168404579163, 0.4621064848654872, 1791228736312343660
-0.32137125730514526, -0.029390156269073486, 0.4808326848653187, 1791228736342433228
0.6136029958724976, 0.4250224232673645, 0.5206387962510735, 1791228736372514523
0.003604292869567871, 0.45051854848861694, 0.48949901318870576, 1791228736402626773
-0.6949980854988098, -0.10201013088226318, 0.4751878619128517, 1791228736432670086
-0.15148711204528809, 0.35521960258483887, 0.4723788881471819, 1791228736463757562
-0.27829641103744507, 0.5738021731376648, 0.4793356295177438, 1791228736495599395
-0.11486446857452393, 0.35937070846557617, 0.5497479452193158, 1791228736522750637
-0.19834619760513306, 0.14760321378707886, 0.47115158751243075, 1791228736552771171
-0.0746840238571167, 0.3353712558746338, 0.48135505880060214, 1791228736582787089
0.1345449686050415, 0.3131864666938782, 0.5092944306954944, 1791228736612843397
-0.3392556309700012, -0.355333149433136, 0.4984758530100669, 1791228736642896693
0.24098068475723267, 0.49750983715057373, 0.5036721110360481, 1791228736672965387
0.10676532983779907, -0.06599599123001099, 0.46525082386244054, 1791228736704389262
-0.49067479372024536, -0.04038745164871216, 0.4647665867281979, 1791228736735950324
0.18121224641799927, 0.5150786638259888, 0.5531041264484652, 1791228736763109190
-0.14817261695861816, 0.4157249927520752, 0.493681643954078, 1791228736793125863
0.434853196144104, 0.003445863723754883, 0.48127936282909595, 1791228736823161646
0.14194786548614502, 0.624478280544281, 0.48511973825388105, 1791228736853226639
-0.034789204597473145, 0.32550138235092163, 0.49410295368897955, 1791228736883243889
-0.15135246515274048, -0.022167623043060303, 0.5129638261063632, 1791228736913331495
0.4558345079421997, 0.6489109396934509, 0.4889374333923134, 1791228736943933448
-0.0033058524131774902, -0.11137586832046509, 0.45069238514357574, 1791228736975662084
0.42001956701278687, -0.10147708654403687, 0.5103511262533229, 1791228737005617821
-0.38817548751831055, 0.08805584907531738, 0.5297293901778787, 1791228737033540751
-0.041229248046875, 0.4264146685600281, 0.46533313243886726, 1791228737063547539
0.6504412293434143, 0.16260969638824463, 0.404471026558516, 1791228737085579860
-0.3374682068824768, -0.014757275581359863, 0.49465995797187695, 1791228737123687521
0.05951404571533203, 0.5038476586341858, 0.49574899865342853, 1791228737153717081
-0.2135106921195984, 0.15232837200164795, 0.49673151111170205, 1791228737183891790
-0.12154054641723633, 0.07951074838638306, 0.46763104528372157, 1791228737216056863
-0.0861251950263977, 0.533820629119873, 0.4923112184911999, 1791228737246720869
0.22868794202804565, 0.4368348717689514, 0.5305131128726812, 1791228737273945864
-0.11853808164596558, -0.16026616096496582, 0.4863794867784966, 1791228737303922178
-0.27066904306411743, 0.7346553206443787, 0.4874295161012372, 1791228737333964695
-0.04922032356262207, -0.11112624406814575, 0.45469706155842887, 1791228737364028662
-0.0019904375076293945, -0.21452414989471436, 0.4689259855659354, 1791228737394054681
0.23539841175079346, 0.8486105799674988, 0.48876250548455197, 1791228737424164405
-0.07340866327285767, -0.5663796663284302, 0.47664250495271904, 1791228737455606287
0.4034007787704468, -0.013330996036529541, 0.47420100088962763, 1791228737487866300
0.16724389791488647, 0.5592463612556458, 0.5672102128519794, 1791228737514367096
-0.5800738334655762, 0.1319149136543274, 0.4862327456832839, 1791228737544355730
0.04906165599822998, 0.5146840214729309, 0.4234797622571418, 1791228737567548268
0.4340641498565674, 0.1668757200241089, 0.5391044532316297, 1791228737594464562
0.39561885595321655, -0.4901515245437622, 0.46622313808822696, 1791228737624462108
0.7084195613861084, 0.637198269367218, 0.49749086677105486, 1791228737654576103
-0.08004242181777954, 0.013883590698242188, 0.47399706699656574, 1791228737684636853
-0.0942772626876831, 0.19130206108093262, 0.4716082265374647, 1791228737714777356
-0.14882439374923706, 0.44513553380966187, 0.4741443662634096, 1791228737744694786
-0.13199806213378906, -0.16041970252990723, 0.45188898276142986, 1791228737775667542
-0.2861948013305664, 0.06038552522659302, 0.4404753779797868, 1791228737807595629
0.08044201135635376, 0.2590200901031494, 0.5269841536188175, 1791228737835173927
-0.04666060209274292, 0.1968563199043274, 0.4703650158923864, 1791228737863911955
-0.2066894769668579, -0.15670424699783325, 0.4560350155153986, 1791228737893952597
0.6520394086837769, 0.20764213800430298, 0.4467020692547287, 1791228737924920841
-0.359633207321167, 0.3227924704551697, 0.4714007490726267, 1791228737955041810
0.5149983763694763, 0.34143704175949097, 0.4771987063194595, 1791228737985124487
-0.053084611892700195, 0.48572999238967896, 0.46431174775596357, 1791228738015702993
0.38184070587158203, 0.23474347591400146, 0.4413913286182793, 1791228738048337808
0.19367367029190063, 0.29122209548950195, 0.5263975008951604, 1791228738075263303
-0.052280545234680176, -0.2035214900970459, 0.45749413303936604, 1791228738105332070
0.26258784532546997, 0.7266589403152466, 0.48247166967665983, 1791228738135317177
-0.026970088481903076, 0.18215692043304443, 0.4668503079366088, 1791228738165409575
-0.09069347381591797, -0.10186761617660522, 0.47591048792332497, 1791228738195424808
-0.10362458229064941, 0.19011962413787842, 0.4823241345732401, 1791228738226198474
-0.39759528636932373, 0.338331937789917, 0.4819348399948593, 1791228738256225811
0.08421260118484497, -0.23349440097808838, 0.4936520301547548, 1791228738287611181
-0.19159561395645142, 0.18784189224243164, 0.528226059212778, 1791228738317734154
0.027858376502990723, 0.3929561972618103, 0.5044714552422004, 1791228738346213088
-0.18543678522109985, 0.04626452922821045, 0.44831507057043873, 1791228738376239329
0.09015262126922607, 0.576815664768219, 0.4302926795483423, 1791228738406281668
-0.4513050317764282, 0.1568555235862732, 0.4367671434442327, 1791228738436287179
0.3259216547012329, 0.3018713593482971, 0.47275740561038826, 1791228738466295845
-0.11734217405319214, 0.27668774127960205, 0.4532267048643895, 1791228738496673709
-0.4120025634765625, 0.2681550979614258, 0.4461732425960475, 1791228738527617772
0.2681329846382141, 0.25902706384658813, 0.47178468687777253, 1791228738558788046
-0.07595235109329224, -0.05616271495819092, 0.52725358449821, 1791228738596371105
0.3033735752105713, 0.7549765110015869, 0.48251740212087285, 1791228738626329558
-0.012452423572540283, 0.18104952573776245, 0.4614348409878363, 1791228738656410899
-0.35535115003585815, -0.23826706409454346, 0.43313962965403596, 1791228738688100842
-0.11282163858413696, 0.5693759918212891, 0.4338882600311228, 1791228738719591187
0.20340502262115479, 0.06735080480575562, 0.4920243895792057, 1791228738746545228
-0.08221584558486938, -0.23190444707870483, 0.45651578482066163, 1791228738776523104
-0.06466072797775269, 0.49553608894348145, 0.47140146987615406, 1791228738806573283
-0.3601396083831787, -0.09363865852355957, 0.46697648342725395, 1791228738836557044
0.23687225580215454, -0.13544607162475586, 0.45480028602018363, 1791228738866764528
-0.2207680344581604, 0.8327188491821289, 0.4349624129418472, 1791228738896651113
-0.43040376901626587, -0.23929733037948608, 0.4259386840644339, 1791228738927639591
0.13477379083633423, 0.09370464086532593, 0.44390820917645607, 1791228738959857144
-0.08525002002716064, 0.3263826370239258, 0.5124261513979906, 1791228738986822969
0.1360377073287964, 0.44980841875076294, 0.46034870590834864, 1791228739016764027
0.18415337800979614, 0.07918328046798706, 0.45603995215756954, 1791228739046789301
0.616020679473877, 0.6486751437187195, 0.4523417315728582, 1791228739076831539
-0.24077248573303223, 0.17734229564666748, 0.4590752091952375, 1791228739106913566
0.3195558786392212, 0.06782937049865723, 0.46760502885142946, 1791228739135956343
-0.02684551477432251, 0.12653720378875732, 0.42042600627820215, 1791228739168048591
0.1449527144432068, 0.4540073275566101, 0.4249706278875945, 1791228739200066560
-0.16922056674957275, 0.028168559074401855, 0.5048828911341177, 1791228739227173433
-0.08798140287399292, -0.10373026132583618, 0.46420793525526666, 1791228739257222297
-0.033657073974609375, 0.5783629417419434, 0.47535485538416894, 1791228739287332623
-0.2739720344543457, -0.28102385997772217, 0.4504530966561877, 1791228739317352488
-0.025855541229248047, 0.3456135392189026, 0.4524634563621537, 1791228739347244141
0.30195140838623047, 0.4656652808189392, 0.4562886602423845, 1791228739377355138
0.32701218128204346, -0.3578622341156006, 0.4457622051297731, 1791228739407654167
0.25457990169525146, 0.08945780992507935, 0.43535277237465975, 1791228739439652365
0.2562573552131653, 0.13062143325805664, 0.4619248265812762, 1791228739467529275
-0.12714135646820068, -0.13937640190124512, 0.4398118803542376, 1791228739497551210
-0.09546750783920288, 0.31362372636795044, 0.4570061223436901, 1791228739527548533
0.24974048137664795, 0.28598475456237793, 0.4563312436152165, 1791228739557878912
0.1852325201034546, 0.09908527135848999, 0.47856195841097887, 1791228739587726717
0.25140297412872314, 0.11863332986831665, 0.4765458840952656, 1791228739617735581
-0.3138049244880676, 0.43293678760528564, 0.4517881296003412, 1791228739648092673
0.28366345167160034, 0.33508116006851196, 0.43827278936273056, 1791228739679660017
-0.19251161813735962, 0.09993988275527954, 0.46100876285685893, 1791228739710018271
0.15573757886886597, 0.0595625638961792, 0.49115470882038803, 1791228739737864056
-0.09222501516342163, 0.38213658332824707, 0.45634222353597415, 1791228739767928510
0.031665265560150146, 0.19722288846969604, 0.4560042653102826, 1791228739796990588
-0.03327810764312744, 0.25389909744262695, 0.45186540132073827, 1791228739827014378
0.15472418069839478, 0.168465256690979, 0.4419613913164466, 1791228739858077148
-0.05634045600891113, 0.09450620412826538, 0.44935553892987634, 1791228739888177877
-0.3789452314376831, 0.07841026782989502, 0.4395294114000188, 1791228739919673815
0.36295706033706665, -0.04975128173828125, 0.44954494930891753, 1791228739951154152
-0.2589969038963318, 0.5438752770423889, 0.5175398076142969, 1791228739978372292
0.3702014088630676, -0.06144225597381592, 0.4540058808246232, 1791228740008350644
0.05889439582824707, 0.18247056007385254, 0.45352785362814746, 1791228740038411147
0.07723534107208252, -0.021841585636138916, 0.46338775132035137, 1791228740068438912
0.2531423568725586, 0.5474137663841248, 0.46881803552505286, 1791228740098517543
-0.0029389262199401855, 0.14135074615478516, 0.4637073593724387, 1791228740128574776
-0.057384610176086426, 0.37940019369125366, 0.4461352334070486, 1791228740160352792
0.24930626153945923, 0.09338605403900146, 0.43849183231144506, 1791228740191692391
-0.04190194606781006, 0.3636373281478882, 0.5176638533809206, 1791228740218704526
-0.05695444345474243, 0.08350956439971924, 0.46515050753347387, 1791228740248713883
0.3585076332092285, 0.27903467416763306, 0.41985209029109605, 1791228740278773339
-0.7420531511306763, 0.24408972263336182, 0.41990098050880875, 1791228740308795886
-0.08327257633209229, -0.03673386573791504, 0.45989286478864405, 1791228740338859192
0.3861456513404846, 0.19251865148544312, 0.4629597177476048, 1791228740368928950
-0.4977542757987976, 0.24142944812774658, 0.45520032062860144, 1791228740398981626
-0.11548423767089844, 0.094105064868927, 0.44817999379832, 1791228740430684873
0.009526550769805908, -0.08534997701644897, 0.4761231579564602, 1791228740459231794
-0.17086541652679443, 0.34219062328338623, 0.4462398273202427, 1791228740489204316
-0.21270644664764404, 0.08278155326843262, 0.44419114745090665, 1791228740519221250
-0.26190119981765747, -0.22677719593048096, 0.43929650782915874, 1791228740549280984
-0.7001327872276306, 0.7093111872673035, 0.45239915838197814, 1791228740579310192
0.6701340675354004, 0.10328102111816406, 0.4550123564410283, 1791228740609366639
-0.44748663902282715, 0.18394243717193604, 0.44978835366838477, 1791228740639652586
0.5092150568962097, 0.6064854860305786, 0.43899904155108926, 1791228740672147295
-0.07871145009994507, 0.532100260257721, 0.5116637941997234, 1791228740699779041
-0.09824687242507935, -0.11060851812362671, 0.458267920038661, 1791228740729633608
0.13700079917907715, 0.19981658458709717, 0.4660453681423895, 1791228740759564235
-0.6950228214263916, 0.5986610651016235, 0.42802980112757943, 1791228740789597843
0.27118009328842163, -0.12782156467437744, 0.4160505493834944, 1791228740819636989
0.26998770236968994, 0.7093609571456909, 0.443609049562288, 1791228740849732612
-0.0805245041847229, 0.12641429901123047, 0.43705876801492444, 1791228740879742620
-0.29297345876693726, 0.2425537109375, 0.42060093789805575, 1791228740911753423
-0.15696460008621216, 0.23962318897247314, 0.45447695080381567, 1791228740941006181
-0.09713679552078247, 0.3644145727157593, 0.47365533260091075, 1791228740969949365
0.23487460613250732, 0.0482177734375, 0.4602768237820497, 1791228740999937394
-0.18915289640426636, 0.3980247974395752, 0.41832435665892315, 1791228741022100895
-0.023517727851867676, 0.2644224166870117, 0.491650155888563, 1791228741059142396
0.36383455991744995, -0.12624019384384155, 0.44808314494695367, 1791228741090111005
-0.38166344165802, 0.19458365440368652, 0.43743965678851027, 1791228741120438142
0.3978290557861328, 0.22732585668563843, 0.4485268740141677, 1791228741151816118
-0.17080003023147583, -0.22951948642730713, 0.46576929471983786, 1791228741182707175
0.3511815667152405, 0.007461249828338623, 0.5153102017579977, 1791228741210321268
-0.42932528257369995, 0.7071179747581482, 0.45557002906116745, 1791228741240366981
0.12907195091247559, -0.4460001587867737, 0.4262924774122022, 1791228741270403385
0.13645660877227783, 0.33795326948165894, 0.4462005151677871, 1791228741300722738
0.11895948648452759, 0.8394578695297241, 0.45110791100954534, 1791228741330532321
0.1334955096244812, -0.03231394290924072, 0.417806703081672, 1791228741360570951
0.05699390172958374, 0.3507527709007263, 0.4391140710928485, 1791228741391884317
0.11987388134002686, 0.4313262701034546, 0.4323880857721814, 1791228741424214671
-0.3640843629837036, 0.13947772979736328, 0.5029339769886182, 1791228741450789331
0.9096620678901672, 0.21428155899047852, 0.48040932021186683, 1791228741480761868
-0.2826572060585022, 0.41769230365753174, 0.44731385422824066, 1791228741511292279
-0.04087871313095093, 0.03852212429046631, 0.4411881126268029, 1791228741540879474
-0.19563782215118408, -0.04654562473297119, 0.4255892971217395, 1791228741571133776
0.5007187128067017, 0.1392340064048767, 0.43397551800970774, 1791228741600945574
0.028396129608154297, -0.01014256477355957, 0.41772189210159594, 1791228741632424781
0.24115252494812012, 0.14407920837402344, 0.41385791695825375, 1791228741663823699
0.11104875802993774, 0.04597681760787964, 0.5106437080837248, 1791228741690189134
-0.1826896071434021, 0.07453280687332153, 0.4790836837023659, 1791228741720090908
0.2594432234764099, 0.12185341119766235, 0.4505797264470625, 1791228741751183056
-0.058426737785339355, 0.2705942988395691, 0.4463408108781049, 1791228741781199175
-0.040489375591278076, -0.28425276279449463, 0.4395832496116781, 1791228741811294693
-0.2802109718322754, 0.43588685989379883, 0.42165352133380435, 1791228741841350851
0.35797494649887085, 0.4497922658920288, 0.4151893553299314, 1791228741871741168
0.015381336212158203, 0.29187214374542236, 0.38769456565788596, 1791228741903964331
0.3092271685600281, 0.048967599868774414, 0.4652201326616638, 1791228741931635604
-0.23791849613189697, 0.4642487168312073, 0.4550076671076084, 1791228741961576498
-0.3848230242729187, 0.2704129219055176, 0.4555181358991924, 1791228741991614072
-0.21362215280532837, -0.12253040075302124, 0.4600774308431004, 1791228742021619725
0.38092947006225586, 0.7643086910247803, 0.4474829215779445, 1791228742051707991
-0.42896896600723267, -0.10435748100280762, 0.432047248059862, 1791228742081750465
-0.1433236002922058, 0.050850629806518555, 0.4622470059830498, 1791228742111917211
0.4389379620552063, 0.16798251867294312, 0.41538958727989755, 1791228742144293739
-0.06911212205886841, -0.03359788656234741, 0.4440154386380739, 1791228742172065339
-0.08557063341140747, 0.3063928484916687, 0.42319264071171725, 1791228742202102447
0.2809171676635742, 0.38432568311691284, 0.43916373798215874, 1791228742231938930
0.001498878002166748, 0.17586511373519897, 0.44545530466370153, 1791228742260994159
-0.2285279631614685, -0.06522417068481445, 0.42054908534013863, 1791228742292069840
0.03867769241333008, 0.17287427186965942, 0.43352014465983185, 1791228742321122826
-0.29052621126174927, 0.09668594598770142, 0.4310750203400017, 1791228742352263903
-0.2608509063720703, 0.2890772223472595, 0.4518608471249087, 1791228742383000718
-0.158582866191864, -0.008576691150665283, 0.42218455907003094, 1791228742414416948
0.4621589183807373, -0.031126856803894043, 0.47676348487364667, 1791228742442357638
0.014673292636871338, 0.1144033670425415, 0.45129756136632565, 1791228742472383768
0.06740248203277588, 0.289794921875, 0.3970115190101934, 1791228742495025022
0.19794034957885742, 0.6410872936248779, 0.4898195715929021, 1791228742532500831
-0.03087782859802246, 0.0464177131652832, 0.45498404338699394, 1791228742562518965
-0.0483851432800293, 0.10548681020736694, 0.4431723655489556, 1791228742592567547
-0.13763833045959473, 0.30566561222076416, 0.4254025279074873, 1791228742623935717
0.1572055220603943, 0.2902832627296448, 0.41348557403037406, 1791228742656415922
-0.5068954825401306, 0.201499342918396, 0.4887325284354302, 1791228742692711974
0.4721912741661072, -0.29566311836242676, 0.43935160784363575, 1791228742722734838
-0.49849188327789307, 0.5071181654930115, 0.4438862715479066, 1791228742752803298
0.13867807388305664, 0.29759693145751953, 0.4303910375199938, 1791228742784406200
0.24067360162734985, -0.03957509994506836, 0.40689840775699554, 1791228742815006865
0.20142370462417603, 0.05819600820541382, 0.44966179883511814, 1791228742841988812
0.06491613388061523, 0.4384416341781616, 0.4095823003195193, 1791228742873040096
-0.4218575358390808, 0.39182716608047485, 0.42751912324374497, 1791228742903034038
-0.1272183656692505, 0.28637439012527466, 0.4287328397208709, 1791228742933145066
0.17225199937820435, 0.013615190982818604, 0.42299094752076644, 1791228742962137745
-0.1753007173538208, -0.26436400413513184, 0.3982547431496682, 1791228742993218164
-0.17045533657073975, 0.8161206841468811, 0.42966942237328876, 1791228743023952403
0.46096956729888916, 0.30621522665023804, 0.43849878196134806, 1791228743056034055
0.09947365522384644, -0.2044919729232788, 0.5242410457524687, 1791228743083409201
0.4498141407966614, -0.003113389015197754, 0.46173239964761903, 1791228743113420975
0.03516221046447754, 0.41981905698776245, 0.431644345391606, 1791228743143421101
-0.4546738862991333, -0.2734641432762146, 0.43389090344242914, 1791228743173483124
-0.36265307664871216, 0.267483115196228, 0.44777844284626905, 1791228743203528238
-0.17910045385360718, -0.07065290212631226, 0.41041900012341653, 1791228743233592190
0.22992169857025146, -0.039002954959869385, 0.4146214035734237, 1791228743264064125
0.0104597806930542, 0.5068583488464355, 0.39565854945621654, 1791228743296362652
-0.33644795417785645, -0.043744564056396484, 0.4560072004378263, 1791228743323783025
0.015882551670074463, -0.11764025688171387, 0.44602467736590384, 1791228743353785089
0.36438560485839844, 0.15446949005126953, 0.4429401787056635, 1791228743383836279
-0.6284933090209961, 0.3610040545463562, 0.4313943580448467, 1791228743413891477
0.5574957132339478, -0.1736028790473938, 0.42086370128589196, 1791228743443930473
-0.01093965768814087, 0.3907727599143982, 0.41099254934530205, 1791228743472980725
0.08927005529403687, 0.4219051003456116, 0.3913673355119803, 1791228743504117718
-0.1007421612739563, -0.23777979612350464, 0.3952597439272217, 1791228743536233071
-0.10543239116668701, 0.45161861181259155, 0.4122659941503064, 1791228743566674585
0.12385529279708862, 0.39111483097076416, 0.481539207806895, 1791228743594313325
-0.17901986837387085, 0.2499399185180664, 0.45678013919152516, 1791228743624401904
0.1464153528213501, 0.03404933214187622, 0.4133494002799635, 1791228743646399863
-0.5033048391342163, 0.39037710428237915, 0.46653847973855533, 1791228743684324618
-0.4629061222076416, 0.13173949718475342, 0.4235785056583601, 1791228743714429611
0.29069745540618896, 0.09824281930923462, 0.43116468365076666, 1791228743744436485
0.3451419472694397, 0.830761730670929, 0.3933346388193555, 1791228743776319614
0.07474243640899658, -0.14578670263290405, 0.38176306713442554, 1791228743808109275
0.08990520238876343, 0.18329346179962158, 0.4958906635431741, 1791228743834605302
0.19072651863098145, 0.13828343152999878, 0.4407879231218434, 1791228743864622670
0.03995156288146973, 0.22723907232284546, 0.4391542709783326, 1791228743894715663
0.4750322103500366, 0.21979665756225586, 0.43371060938762346, 1791228743924727399
-0.23007982969284058, 0.29239195585250854, 0.3965454404193578, 1791228743954830444
-0.14726561307907104, 0.3333955407142639, 0.41461360678616854, 1791228743984843892
-0.10966366529464722, -0.4555707573890686, 0.3916238311854095, 1791228744016275895
0.18676698207855225, 0.234136164188385, 0.3760941034437881, 1791228744047933051
-0.3280872702598572, 0.427234411239624, 0.46378750840140515, 1791228744074004462
-0.008118212223052979, -0.22108924388885498, 0.41522542841799404, 1791228744103998004
-0.25372225046157837, -0.17229342460632324, 0.46080076197569986, 1791228744134021959
-0.0417858362197876, 0.5654506683349609, 0.45868042217002736, 1791228744165148959
0.056449055671691895, -0.33164143562316895, 0.42588450508082076, 1791228744195142442
0.4163278341293335, 0.16421175003051758, 0.4233213603417075, 1791228744224525203
-0.0016427040100097656, 0.27946311235427856, 0.4086548995698898, 1791228744255583291
-0.025219202041625977, -0.10217452049255371, 0.3663761970694328, 1791228744288280277
0.02109670639038086, 0.05532693862915039, 0.46711326413201715, 1791228744315449417
0.4003843069076538, 0.5689511299133301, 0.4261820745216131, 1791228744345482114
-0.05188643932342529, 0.15057700872421265, 0.40987986390408393, 1791228744375558758
-0.13527405261993408, 0.11605715751647949, 0.42248600387708346, 1791228744405554989
0.2164323925971985, 0.2056407332420349, 0.428376300243986, 1791228744435564843
-0.45403969287872314, -0.0228806734085083, 0.4258011117066392, 1791228744465628100
-0.05916553735733032, 0.6227232217788696, 0.4337242276476561, 1791228744494994232
0.10615503787994385, 0.14772039651870728, 0.3865758525051124, 1791228744527928089
-0.3205709457397461, 0.2977701425552368, 0.4646791235781374, 1791228744555780138
-0.24878060817718506, 0.08084636926651001, 0.42326895816752474, 1791228744586587800
-0.034534573554992676, 0.5239580273628235, 0.4455834792236601, 1791228744616441733
-0.29440587759017944, -0.11835670471191406, 0.4474474948698641, 1791228744646531199
-0.2697666883468628, 0.34234464168548584, 0.44363417757247375, 1791228744676488205
-0.6656238436698914, 0.28943580389022827, 0.42559621419744514, 1791228744706584630
-0.14051932096481323, -0.39474207162857056, 0.4228245536562044, 1791228744736581852
0.4154849648475647, 0.2785401940345764, 0.3715484719676143, 1791228744768808365
-0.023421406745910645, 0.2763383984565735, 0.4028983401787315, 1791228744798752504
0.464066743850708, -0.1614515781402588, 0.424836273033887, 1791228744826601503
0.10832059383392334, -0.14196258783340454, 0.40349731169537534, 1791228744856598839
-0.2531875967979431, 0.4129796028137207, 0.4213801669135571, 1791228744886619393
0.37172049283981323, -0.06579846143722534, 0.42712374566218875, 1791228744916604830
0.011024713516235352, -0.42669254541397095, 0.42457617078558924, 1791228744946859807
0.02241891622543335, 0.3683885335922241, 0.4394866771265209, 1791228744976774725
-0.4783167839050293, 0.3906781077384949, 0.4122673892257171, 1791228745006996195
-0.36303120851516724, -0.21140772104263306, 0.3751827456489879, 1791228745039935345
0.029567241668701172, -0.0760427713394165, 0.4843824590500297, 1791228745067027400
-0.0974961519241333, 0.31915533542633057, 0.4342974006585131, 1791228745096891772
0.20242410898208618, -0.07113182544708252, 0.4357077531585958, 1791228745126837007
0.7317725419998169, -0.019004106521606445, 0.4359121147175432, 1791228745156952747
-0.5341664552688599, 0.25158363580703735, 0.4146264384763652, 1791228745187027420
0.3480694890022278, -0.5480257868766785, 0.41684803499613043, 1791228745216971462
0.18366891145706177, 0.31257331371307373, 0.41548392593709255, 1791228745247009967
-0.10825973749160767, 0.2536620497703552, 0.3453986700664748, 1791228745280610562
-0.01887911558151245, 0.05815654993057251, 0.43762853505164495, 1791228745307102244
-0.3698371648788452, -0.23161780834197998, 0.3936386747129442, 1791228745336007983
-0.5861392021179199, 0.27978944778442383, 0.38323203641669934, 1791228745367113581
-0.22290146350860596, 0.3413901925086975, 0.41884911332474156, 1791228745397114632
-0.2245120406150818, 0.10161012411117554, 0.4327032645762412, 1791228745427173402
-0.25853800773620605, 0.3847872018814087, 0.4539525072616212, 1791228745457233399
0.18158680200576782, 0.05182009935379028, 0.4486434852305103, 1791228745488069384
-0.5059792399406433, 0.16938108205795288, 0.41506324327731065, 1791228745519910371
0.25524282455444336, 0.6122947931289673, 0.46215903827304566, 1791228745547457955
0.17772620916366577, 0.11283975839614868, 0.4002337161128186, 1791228745577382063
0.2697257399559021, -0.2346857190132141, 0.39179157539042264, 1791228745607476816
-0.3869616389274597, 0.6947044730186462, 0.3920261014681246, 1791228745637473738
-0.2236965298652649, -0.18651878833770752, 0.36996458676389465, 1791228745667537113
0.22195792198181152, 0.29968148469924927, 0.4004843237473594, 1791228745697615361
0.0008671283721923828, 0.6421247124671936, 0.4107904709466794, 1791228745728388605
0.2027694582939148, -0.28709882497787476, 0.3993162260593962, 1791228745759935319
-0.004104018211364746, 0.40580886602401733, 0.4742969867012089, 1791228745787836012
0.49978107213974, -0.10390245914459229, 0.425085885936277, 1791228745817791055
-0.30498456954956055, -0.07094031572341919, 0.42658005019224227, 1791228745847824733
-0.0019776225090026855, 0.166307270526886, 0.38092839221170743, 1791228745870138033
-0.02541285753250122, 0.4217832684516907, 0.4231159800233621, 1791228745897928360
-0.17253118753433228, -0.22365295886993408, 0.4022068824791981, 1791228745926984664
0.038500428199768066, 0.3623189926147461, 0.38478776157111216, 1791228745958059656
-0.3036876320838928, 0.14620304107666016, 0.4029687168445193, 1791228745988109198
0.029237031936645508, 0.04110819101333618, 0.4273306153011982, 1791228746018148040
-0.13616472482681274, 0.29680824279785156, 0.41849232331643577, 1791228746048466780
-0.15582823753356934, 0.3416014313697815, 0.40532230802246494, 1791228746078985706
-0.628686249256134, -0.07227170467376709, 0.40695716235409607, 1791228746110771384
0.7005975842475891, 0.021975815296173096, 0.4706418157376577, 1791228746147287510
-0.2268502116203308, 0.030853092670440674, 0.3937908926033012, 1791228746178396364
0.34611058235168457, 0.19508832693099976, 0.39604002810741407, 1791228746208441147
0.10554444789886475, 0.15875059366226196, 0.37611855156002677, 1791228746240425884
-0.4004907011985779, 0.13527506589889526, 0.403817695528998, 1791228746271500577
0.20612746477127075, 0.19156652688980103, 0.44644613354017465, 1791228746298668830
-0.5987744927406311, 0.2515856623649597, 0.4033185386049447, 1791228746328605415
-0.3322468400001526, 0.33528465032577515, 0.40463792497296613, 1791228746358727332
-0.16197985410690308, 0.007443368434906006, 0.3975613098337985, 1791228746388768526
-0.27034497261047363, 0.19331812858581543, 0.39153672777244813, 1791228746418854545
0.0404965877532959, 0.7483599185943604, 0.40734936271627137, 1791228746448884083
-0.07192075252532959, 0.23551535606384277, 0.4179787352124692, 1791228746480297877
-0.33706891536712646, 0.3749682307243347, 0.3865181966501783, 1791228746512045805
0.7881197929382324, -0.23895102739334106, 0.4637050693906706, 1791228746539108281
-0.42297273874282837, 0.15465879440307617, 0.4111409804312944, 1791228746568087530
0.2561045289039612, 0.07758265733718872, 0.3709689843965676, 1791228746599130592
-0.01608097553253174, 0.20140397548675537, 0.3900854079594069, 1791228746629170944
-0.004371821880340576, 0.11460494995117188, 0.3670850319684722, 1791228746659520473
-0.32878631353378296, -0.10951709747314453, 0.3838810696745483, 1791228746689229362
-0.10742133855819702, 0.32148653268814087, 0.39481931322378316, 1791228746718985538
-0.47247833013534546, 0.1780790090560913, 0.3639055491669856, 1791228746752429743
0.33099085092544556, 0.5840790867805481, 0.4614398676927434, 1791228746779441480
-0.22992968559265137, 0.4279826283454895, 0.41646121725336854, 1791228746809408795
-0.2598835825920105, 0.14314740896224976, 0.40960258324593124, 1791228746839469579
-0.24595391750335693, 0.3276495933532715, 0.40220239890301746, 1791228746869511312
-0.26831579208374023, -0.24324911832809448, 0.39379144748523853, 1791228746899599869
0.36655449867248535, 0.6922376155853271, 0.40849909961486475, 1791228746929617474
-0.09476453065872192, 0.10903245210647583, 0.3932587431634569, 1791228746960063140
0.3986620306968689, 0.07625454664230347, 0.3788250494969237, 1791228746992147783
0.32414549589157104, 0.5660563111305237, 0.45646830957560075, 1791228747019933641
-0.32445430755615234, 0.014270007610321045, 0.40241587214763624, 1791228747049793028
0.2606974244117737, 0.05613976716995239, 0.44437307421199795, 1791228747079881822
