acc_x, acc_y, angular_z, stamp, 
0.01600015163421631, -0.02152431011199951, -2.558809626631881e-10, 1791228346498872488
0.0050427913665771484, -0.03243011236190796, -3.117743780113673e-10, 1791228346528912133
-0.012916088104248047, -0.010601639747619629, -2.678593467630493e-10, 1791228346558077908
0.006959378719329834, 0.01816767454147339, -1.6792581977015313e-10, 1791228346588085518
0.006938755512237549, -0.005202054977416992, -1.5445862711382175e-10, 1791228346620383681
0.003110826015472412, -0.012342095375061035, -1.948645640093927e-10, 1791228346652429178
0.008386075496673584, 0.015011906623840332, -2.0325415811975867e-10, 1791228346679199952
-0.00956183671951294, -0.006311953067779541, -1.1488687403400097e-10, 1791228346709228581
0.0011659860610961914, -0.002601802349090576, -7.403074999323162e-11, 1791228346739323350
0.015395045280456543, -0.023987889289855957, -4.7081335487675396e-11, 1791228346769365816
-0.031501948833465576, -0.027321696281433105, 1.080441296719302e-11, 1791228346799369169
0.0008316636085510254, 0.02139568328857422, 1.0672524815816342e-10, 1791228346829398087
0.015207767486572266, 0.010530471801757812, 1.0687893753314989e-10, 1791228346860400501
0.015095293521881104, -0.012999534606933594, 4.4920250026856836e-11, 1791228346892812378
-0.028114020824432373, -0.014719903469085693, 3.156356577298231e-11, 1791228346919605593
-0.01896268129348755, -0.0074155330657958984, 5.304256781057563e-11, 1791228346949611592
-0.0025856494903564453, 0.014195740222930908, 5.826685883557623e-11, 1791228346978671349
0.028044819831848145, -0.009149610996246338, 4.805729264579013e-11, 1791228347009712538
0.008313238620758057, 1.6808509826660156e-05, 6.050499898932977e-11, 1791228347039866956
-0.009532570838928223, 0.00038695335388183594, 5.829978494387466e-11, 1791228347069866792
-0.027198076248168945, 0.013242363929748535, 4.480562864753256e-11, 1791228347100651236
0.012589335441589355, -0.0028984546661376953, 7.895835240710955e-12, 1791228347132397406
-0.03200656175613403, -0.020871520042419434, -1.1858631994178085e-10, 1791228347158991243
-0.0010471940040588379, -0.02974802255630493, -1.7307653467982954e-10, 1791228347189972884
-0.01672571897506714, 0.03143709897994995, -3.1455986851720765e-10, 1791228347220064881
-0.0002561211585998535, -0.026129543781280518, -3.7154812249504946e-10, 1791228347250073419
0.001750171184539795, -0.03319048881530762, -4.252916080986525e-10, 1791228347280144212
-0.016083717346191406, -0.00406646728515625, -5.704724750197283e-10, 1791228347310188372
-0.01753997802734375, 0.008682608604431152, 1.9436569895475245e-06, 1791228347340843528
-0.004522264003753662, 0.031970202922821045, 1.8569088393177038e-06, 1791228347372928786
-0.01674365997314453, 0.0030601024627685547, -8.771396255029711e-10, 1791228347400387603
-0.0020124316215515137, -0.018622875213623047, -7.257586663120158e-10, 1791228347430536345
-0.016062498092651367, -0.007906913757324219, -7.068119887180204e-10, 1791228347460433689
0.004109799861907959, 0.02619779109954834, 1.981096270858692e-06, 1791228347490508646
0.008015334606170654, 0.02071624994277954, -6.840469160812274e-10, 1791228347520575091
0.008214831352233887, -0.022408127784729004, -6.185688069503437e-10, 1791228347550608850
0.0028458833694458008, -0.000686943531036377, -7.300135500918101e-10, 1791228347580667445
-0.013228833675384521, 0.02102571725845337, -8.061755475897419e-10, 1791228347612747113
0.013782501220703125, -0.000590205192565918, -7.928177095786013e-10, 1791228347641828341
-0.015047311782836914, -0.007940530776977539, -6.561865148172126e-10, 1791228347669740922
0.0010654926300048828, 0.020782470703125, 1.9185273163504924e-06, 1791228347700800449
-0.0132981538772583, 0.00452500581741333, -2.4359970286059143e-10, 1791228347722850029
0.011895895004272461, 0.008074581623077393, -3.628757365817733e-10, 1791228347750001359
0.011751174926757812, 0.016801297664642334, -2.4448217285735854e-10, 1791228347780963049
0.011452853679656982, -0.008739113807678223, 1.0844601272309651e-10, 1791228347809989459
0.007326066493988037, 0.02111053466796875, 6.098646384466471e-10, 1791228347901175333
-0.008945941925048828, -0.006111204624176025, 3.366343730185246e-10, 1791228347932760716
0.0023965835571289062, 0.014671862125396729, 6.172278361175834e-05, 1791228347963662573
0.733693540096283, 0.07760363817214966, 0.0011266600082147117, 1791228348001012383
1.6362961530685425, -0.14995914697647095, -0.009258597706177612, 1791228348031964072
1.2541121244430542, 0.0033894777297973633, -0.028114729675896028, 1791228348062034652
1.263113260269165, 0.24510478973388672, -0.007704553163047375, 1791228348092436078
0.8454811573028564, -0.1961459517478943, 0.006294520546854711, 1791228348124689601
1.1575467586517334, -0.2548423409461975, 0.012782478105076137, 1791228348152026010
0.549992561340332, 0.4623984694480896, -0.034406023429101075, 1791228348182640292
0.9536653161048889, 0.022190511226654053, -0.02072476868926157, 1791228348212082092
0.5976148247718811, 0.0016121268272399902, -0.002256131641964426, 1791228348242118137
1.0399610996246338, -0.21040159463882446, -0.0006644529745519805, 1791228348272069705
0.7455801963806152, 0.07606518268585205, -0.006441535521561926, 1791228348302392903
0.911504328250885, 0.10858887434005737, -0.009147781707718322, 1791228348332649586
0.5962997674942017, 0.161033034324646, -0.033150735209446516, 1791228348364819662
1.0044232606887817, -0.15203815698623657, -0.0065950721249152825, 1791228348392151900
0.9850162267684937, 0.35866260528564453, 0.005926889301402293, 1791228348422355206
0.20283740758895874, -0.34952330589294434, 0.009304699802833917, 1791228348452548156
-0.16966497898101807, 0.14324218034744263, -0.008115254108753982, 1791228348482435848
-0.16510093212127686, 0.39903098344802856, 0.001912215572923976, 1791228348512689950
-0.08079791069030762, -0.19408923387527466, -0.005668047799679445, 1791228348542596700
-0.35198974609375, -0.6001055836677551, 0.004510663887727003, 1791228348572479999
0.08247929811477661, 0.2675425410270691, -0.01838401955597168, 1791228348603984558
-0.7778326272964478, -0.020712971687316895, -0.05037680340194659, 1791228348632515535
-0.23744016885757446, -0.2245822548866272, 0.0065782626097834, 1791228348662508317
0.06915897130966187, 0.2732350826263428, 0.020264622968207243, 1791228348692633288
-0.18859153985977173, 0.22490543127059937, 0.009585436329451453, 1791228348722435863
0.3765637278556824, 0.07701331377029419, 0.027157340583617153, 1791228348752486513
-0.20088088512420654, -0.08938777446746826, 0.023695104585000803, 1791228348782549813
0.27738553285598755, 0.14899516105651855, 0.014377707876638307, 1791228348812736412
-0.42553919553756714, 0.01252967119216919, -0.017026809320974112, 1791228348844962287
-0.016484200954437256, 0.035959720611572266, -0.01745811973474662, 1791228348874804838
0.03180462121963501, 0.15502625703811646, 0.0009623413941552906, 1791228348902864738
-0.29945653676986694, -0.30300939083099365, -0.007118704312986057, 1791228348932821436
0.6033504009246826, 0.1258460283279419, -0.008398894405909215, 1791228348954233290
-0.3743739724159241, 0.1509649157524109, -0.005770468125229512, 1791228348992900652
0.4633846879005432, -0.03386712074279785, 0.010401699047648488, 1791228349022950913
-0.38559532165527344, -0.5724897384643555, 0.019489641326677257, 1791228349053040485
0.15462607145309448, 0.10715621709823608, 0.00793444393864086, 1791228349085202101
-0.026572704315185547, 0.2999700903892517, -0.017366464155001655, 1791228349114981787
-0.06373769044876099, -0.6074987649917603, 0.003226245055014237, 1791228349143182285
0.3380087614059448, 0.15988099575042725, 0.02401294569718765, 1791228349173139334
-0.5985302329063416, 0.6614311337471008, -0.008668000722335206, 1791228349203206120
0.6048596501350403, -0.1812114119529724, -0.012165827335594051, 1791228349233220157
-0.19549477100372314, 0.14316415786743164, -0.022225514523873138, 1791228349263284772
0.14471817016601562, 0.24578404426574707, -0.011863683329946115, 1791228349293670691
-0.07890403270721436, 0.017882049083709717, 0.03164626311278868, 1791228349324884526
0.2225261926651001, -0.07813507318496704, 0.010989567330847617, 1791228349356697674
-0.014639616012573242, 0.17512714862823486, 0.008946092460515614, 1791228349383601335
-0.19637280702590942, -0.2336830496788025, -0.0007983167627414102, 1791228349413553838
0.7925101518630981, 0.19376367330551147, 0.0022211057325233594, 1791228349436867011
-0.232682466506958, 0.35905343294143677, -0.004633252256075313, 1791228349473666512
-0.48333150148391724, -0.3155447840690613, -0.013186473863085978, 1791228349503738369
0.05468451976776123, -0.31225794553756714, 0.0030207192008962023, 1791228349533828674
0.12734705209732056, -0.04168814420700073, -0.03144312217733537, 1791228349565232021
-0.040508389472961426, -0.08812737464904785, -0.011686051546803553, 1791228349597072014
0.08014613389968872, -0.3744380474090576, 0.024727389037489667, 1791228349623937653
0.016614079475402832, 0.14007329940795898, -0.009331457595945338, 1791228349653938407
-0.33979105949401855, 0.3924024701118469, -0.00506826202622674, 1791228349683923645
0.1728253960609436, -0.780537486076355, 0.015508299499625922, 1791228349704115505
0.2311389446258545, 0.2114468812942505, 0.0245023890044635, 1791228349744074684
0.10816061496734619, 0.3070756196975708, 0.018953709654110994, 1791228349774114182
0.2063385248184204, 0.03932666778564453, -0.014054109071549182, 1791228349804791216
-0.22198176383972168, 0.29488033056259155, -0.02670216768437614, 1791228349836911960
-0.08671963214874268, -0.32013827562332153, -0.02614158042421215, 1791228349864349034
0.1515733003616333, 0.5184635519981384, 0.018241613133966113, 1791228349894414372
0.53905189037323, -0.06227397918701172, -0.00949898172296006, 1791228349924449975
-0.04291069507598877, -0.23982012271881104, -0.02047270992290396, 1791228349954620184
0.8277580738067627, 0.1500493288040161, 0.018610576261753334, 1791228349984558910
0.17367053031921387, 0.01768171787261963, 0.019555161425528874, 1791228350014580986
-0.34752023220062256, 0.07040327787399292, -0.003961241866917955, 1791228350045508780
0.04955554008483887, 0.022517085075378418, -0.011020116137917207, 1791228350076731616
0.010464012622833252, 0.32032209634780884, 0.012411312695735054, 1791228350105983725
-0.32243794202804565, -0.12307184934616089, 0.00963097845575419, 1791228350144712041
-0.08336538076400757, -0.5761203765869141, -0.027703089851253943, 1791228350174792628
-0.11653882265090942, 0.32035303115844727, -0.02560784723867331, 1791228350204832429
0.03770267963409424, -0.007943868637084961, -0.007060064717344554, 1791228350237132947
-0.011576294898986816, -0.4966316819190979, 0.022780484590846296, 1791228350267656832
0.13417375087738037, -0.10571509599685669, 0.011756285013784153, 1791228350304013277
-0.022548913955688477, 0.2791460156440735, 0.001408305808143102, 1791228350335082671
0.4217571020126343, -0.34491056203842163, 0.021330335712092044, 1791228350365319806
-0.31116342544555664, 0.36599546670913696, -0.0006091281337945242, 1791228350397124936
0.1395072340965271, -0.8650444149971008, -0.006805144104553847, 1791228350429226906
0.19605165719985962, -0.11125534772872925, -0.00482567627022949, 1791228350465306850
0.10481828451156616, 0.43484121561050415, -0.008050888415973104, 1791228350495400391
-0.33587145805358887, 0.13596653938293457, 0.005110423463089721, 1791228350525432873
0.06344616413116455, 0.03301173448562622, 0.0037226373145164628, 1791228350557070826
0.45713967084884644, 0.4506353735923767, 0.004887067355046172, 1791228350588606747
-0.22904640436172485, -0.11000919342041016, 0.02061449796820239, 1791228350615573501
0.46547162532806396, 0.000570833683013916, 0.017560030982545813, 1791228350645645236
0.21342748403549194, 0.5169772505760193, -0.001580181778612002, 1791228350675681642
-0.4602718949317932, -0.2863146662712097, -0.006147026850263637, 1791228350705650855
0.437170147895813, -0.6692793965339661, 0.002203584235880452, 1791228350735703915
0.12957465648651123, 0.6503018140792847, -0.02436641661691099, 1791228350765773532
0.5187308192253113, -0.24756360054016113, -0.051001288174318905, 1791228350796656543
-0.635713517665863, -0.6463292241096497, 0.0012015672019128057, 1791228350828609932
0.9635009765625, 0.21900391578674316, 0.012405005739986912, 1791228350855190346
-0.4430720806121826, 0.04090297222137451, 0.0024850303663862187, 1791228350885941991
0.010994255542755127, -0.08276122808456421, 0.017387644486506676, 1791228350916072771
0.3568527102470398, 0.246954083442688, 0.015062414077321081, 1791228350946141685
0.015660107135772705, 0.23802518844604492, 0.003922134384824929, 1791228350976162634
0.32826656103134155, 0.13786202669143677, 0.002413480066216671, 1791228351006172612
0.04593747854232788, -0.2438015341758728, -0.012169445803268912, 1791228351036783241
0.5883660316467285, 0.3607308864593506, -0.028933365796312928, 1791228351069275142
-0.5099295973777771, 0.010750114917755127, -0.041402247426595554, 1791228351096627262
0.2591133117675781, -0.10370141267776489, -0.022191899328892806, 1791228351126331916
-0.05713176727294922, 0.293178915977478, -0.012555738837229125, 1791228351156427961
0.07563138008117676, -0.19866162538528442, 0.010124615864709795, 1791228351186405831
0.22232139110565186, -0.12768840789794922, 0.03634069914818406, 1791228351217461010
0.08574819564819336, 0.11427658796310425, 0.002837747484281993, 1791228351247328197
0.06107050180435181, -0.0339851975440979, -0.012705268640566633, 1791228351277353062
-0.2785017490386963, -0.5742972493171692, -0.024483855301081096, 1791228351308892681
-0.062215566635131836, 0.033615827560424805, -0.02061168535698502, 1791228351339566285
-0.03410828113555908, 0.42298781871795654, -0.033840160525135325, 1791228351367375601
0.7291363477706909, 0.16901147365570068, -0.02224200365025078, 1791228351397490958
0.19678694009780884, -0.06417214870452881, 0.005188345456958543, 1791228351419294216
-0.22678512334823608, 0.49691396951675415, -0.011594264181039447, 1791228351447435799
0.3066328167915344, 0.10975909233093262, 0.02622083590118257, 1791228351477343307
-0.1568935513496399, 0.20331263542175293, 0.001011904405124685, 1791228351507358815
0.0269545316696167, -0.019306480884552002, -0.015607160128717658, 1791228351537345972
-0.36975616216659546, 0.4850539565086365, 0.04077103085810409, 1791228351567297672
0.4500594139099121, -0.02899003028869629, 0.02066362416147755, 1791228351597425014
-0.1584044098854065, -0.07210129499435425, -0.00967130195476417, 1791228351628956653
-0.18334245681762695, -0.05732804536819458, -0.013864512110441086, 1791228351660151677
-0.2913636565208435, -0.23155969381332397, -0.010043582867232843, 1791228351687517835
-0.017542541027069092, 0.17063981294631958, -0.0029098280019464666, 1791228351717555341
-0.294849157333374, -0.18136507272720337, -0.010627008337460723, 1791228351747569621
0.2559264302253723, -0.10578805208206177, 0.01579439397417784, 1791228351777587509
0.15909218788146973, -0.18484538793563843, 0.0133884476273915, 1791228351807826543
-0.3003901243209839, 0.11332845687866211, 0.007464987305178945, 1791228351837597510
0.24239522218704224, -0.45795226097106934, 0.0195963817024952, 1791228351868637201
-0.034812986850738525, 0.08980339765548706, -0.010850671959328904, 1791228351901195850
-0.1054348349571228, 0.35876715183258057, -0.021968697949010376, 1791228351927712349
0.11219680309295654, -0.26816266775131226, 0.0035651175323724014, 1791228351957727346
0.21287941932678223, 0.18012726306915283, -0.022302601910904017, 1791228351987775119
-0.3199027180671692, 0.37150025367736816, -0.015717628115166086, 1791228352017768885
0.31901127099990845, 0.0612185001373291, 0.009137528608699638, 1791228352047850975
-0.18198281526565552, 0.24435997009277344, 0.009950007358565324, 1791228352077901544
-0.10872489213943481, -0.4743879437446594, 0.005841315910517781, 1791228352108654154
-0.21052443981170654, 0.3979882597923279, 0.032505362593642916, 1791228352141011404
0.1845964789390564, -0.14347487688064575, 0.01961716488671731, 1791228352168023659
-0.21516478061676025, -0.30309319496154785, -0.012319776172838146, 1791228352198045630
-0.42457062005996704, -0.06173968315124512, -0.01318795426946842, 1791228352228107184
-0.12687695026397705, -0.3076017498970032, -0.01306562623375985, 1791228352258203740
-0.0019844770431518555, 0.21964198350906372, -0.021880801151157814, 1791228352288232699
-0.4274234175682068, -0.11813724040985107, -0.009281905886073034, 1791228352318312813
0.10476571321487427, -0.017701804637908936, -0.0006725761228587844, 1791228352349264579
-0.2907559871673584, -0.23033177852630615, -0.0009714285147681623, 1791228352380703066
0.09366470575332642, 0.36452287435531616, 0.02797497310070618, 1791228352408435457
-0.13526171445846558, 0.02535688877105713, 0.00889465228286929, 1791228352438475835
0.43468791246414185, -0.22305244207382202, -0.014906681655840926, 1791228352468535931
-0.4712272882461548, 0.5199458003044128, 0.004679142286262613, 1791228352498571763
0.1529790759086609, 0.10511314868927002, 0.015702560395472635, 1791228352528612068
-0.17993319034576416, -0.23942267894744873, -0.008255982842251836, 1791228352558692649
-0.3401467204093933, 0.09464669227600098, -0.009335423154069704, 1791228352588741274
0.21015113592147827, 0.03370565176010132, -0.014032947879001773, 1791228352620694860
-0.8018219470977783, -0.002548515796661377, 0.009242196640782397, 1791228352650891372
0.38905924558639526, -1.0483803749084473, 0.02209234778906159, 1791228352678842637
-0.1855553388595581, 0.4556064009666443, 0.011964914090681148, 1791228352708954007
-0.07918143272399902, 0.18383216857910156, -0.015271447160594554, 1791228352737083704
-0.2166367769241333, -0.047306180000305176, 0.002054503841579393, 1791228352769210494
0.2690238356590271, -0.021468698978424072, 0.011178272800242557, 1791228352799229873
-0.17301112413406372, 0.5272232294082642, -0.010395386489197042, 1791228352829238463
-0.056487858295440674, -0.1577281355857849, 0.0025699404436947426, 1791228352861336907
0.2294040322303772, -0.11076086759567261, 0.010842689025837692, 1791228352891657569
-0.17102444171905518, 0.35857802629470825, 0.0034470524288487173, 1791228352919344098
-0.41650891304016113, -0.11067932844161987, -0.008227777432512007, 1791228352949342664
-0.1887393593788147, -0.6199250221252441, -0.004921751973848518, 1791228352979356659
-0.12291783094406128, 0.1856365203857422, 0.009155912319778354, 1791228353009416992
-0.25733107328414917, 0.08205753564834595, -0.011499885705575408, 1791228353039463412
-0.13984686136245728, -0.5510683655738831, 0.01999590103825743, 1791228353069527512
0.20613116025924683, 0.14664995670318604, 0.008851993852328726, 1791228353100970103
-0.5863736271858215, 0.04077869653701782, -0.0057467142250788444, 1791228353132732606
0.04807758331298828, -0.03229880332946777, 0.004148138269050714, 1791228353159691244
-0.08550196886062622, 0.19889366626739502, -0.018705264007788488, 1791228353189710165
-0.3948855996131897, 0.10873866081237793, -0.03975160424474936, 1791228353219721266
-0.10269325971603394, 0.18023020029067993, 0.004201696306716467, 1791228353249790754
0.11719393730163574, -0.08670353889465332, 0.018550634937025003, 1791228353279795180
-0.3485698699951172, 0.14592665433883667, -0.0003776165188878537, 1791228353309914400
-0.3962898850440979, 0.06600278615951538, -0.004374382499581333, 1791228353340721647
0.17210054397583008, -0.06826841831207275, 0.00908918694773365, 1791228353373417900
-0.19337064027786255, 0.2356240153312683, 0.013619987547716495, 1791228353400041555
-0.017180323600769043, -0.26326996088027954, -0.008239688155751587, 1791228353430126758
-0.3521903157234192, 0.17585790157318115, 0.0001662253793913327, 1791228353452721493
0.6127395629882812, 0.3730838894844055, -0.01581362799824574, 1791228353480222466
-0.15138763189315796, -0.1136559247970581, -0.02456050908928721, 1791228353510271349
0.048894286155700684, 0.0008440613746643066, -0.01237039758716758, 1791228353540280791
0.031760334968566895, 0.5526801347732544, -0.018659459684260013, 1791228353570348414
0.17204833030700684, -0.36085617542266846, -0.00987993629675231, 1791228353600374187
-0.28731590509414673, -0.42096561193466187, 0.014039451411946088, 1791228353630423671
0.2897483706474304, 0.18686074018478394, 0.012516314749833782, 1791228353660020634
-0.21586430072784424, -0.1771913766860962, 0.010110764620458736, 1791228353693155568
0.03935563564300537, -0.17336148023605347, 0.018918664853570587, 1791228353720633212
0.3107609152793884, 0.11014604568481445, 0.005163933531167633, 1791228353750605840
-0.029613137245178223, 0.023017585277557373, -0.01669502804844809, 1791228353780647689
-0.1339881420135498, -0.1830102801322937, -0.00038263298231597703, 1791228353810860771
0.6475145220756531, 0.05420660972595215, -0.0038453570648937733, 1791228353840718797
-0.12438040971755981, 0.20336490869522095, -0.02570289637722532, 1791228353870835102
-0.063728928565979, -0.013264298439025879, -0.009585714570466449, 1791228353900861212
-0.07284808158874512, -0.0007985234260559082, 0.006654572118384649, 1791228353932756071
0.26031237840652466, 0.24347782135009766, 0.013498537631490677, 1791228353959982974
-0.24163389205932617, -0.0719495415687561, 0.022985661496877887, 1791228353991031275
0.3822317123413086, 0.0024001002311706543, 0.031678788693579735, 1791228354021038376
0.2762722373008728, 0.30829542875289917, -0.01161858828076528, 1791228354051088869
-0.5648550391197205, -0.29509758949279785, -0.017407272318150542, 1791228354081170256
0.04114711284637451, -0.41505879163742065, -0.004435322817315214, 1791228354111481123
-0.16742730140686035, 0.5435900688171387, -0.025134884374633064, 1791228354141386386
-0.21418464183807373, 0.5207642316818237, -0.03938473478956382, 1791228354172740375
0.7213498950004578, -0.11656224727630615, 0.0061792322995280575, 1791228354203488438
-0.2623292803764343, -0.4721866250038147, 0.015603437774434296, 1791228354241512310
-0.07650548219680786, -0.11601370573043823, -0.006647542533292118, 1791228354271584844
0.1598430871963501, -0.14795422554016113, -0.0066487824006105775, 1791228354301516001
-0.26405638456344604, 0.051526546478271484, -0.0032212798330945444, 1791228354333173671
-0.05318492650985718, -0.40429413318634033, -0.011925195228557853, 1791228354363007701
0.009320378303527832, 0.26535969972610474, 0.026275554500232445, 1791228354392338639
-0.018708527088165283, 0.29289525747299194, -0.016606260017693556, 1791228354422272692
0.13196516036987305, -0.24734282493591309, -0.029211832125124675, 1791228354452369091
-0.05136531591415405, 0.12849736213684082, 0.004321229976793203, 1791228354482326098
0.08670657873153687, 0.24172532558441162, -0.003840384378861689, 1791228354512560752
-0.046459317207336426, -0.07922506332397461, 0.0018582968375010563, 1791228354542393848
0.2707309126853943, 0.10831093788146973, 0.022498079944955028, 1791228354572829881
-0.11509257555007935, 0.5960173606872559, 0.021880529145611678, 1791228354604917504
-0.05541902780532837, -0.19257992506027222, 0.004085132925891476, 1791228354632479274
-0.059369444847106934, -0.03448176383972168, -0.012135328295962276, 1791228354662475693
-0.2888405919075012, 0.4330871105194092, -0.009645791637082917, 1791228354692486696
0.6678954362869263, -0.4875906705856323, -0.02094398965606415, 1791228354722469801
-0.14022547006607056, -0.3376929759979248, -0.013853921588943201, 1791228354752571254
0.4740105867385864, 0.18061023950576782, -0.0002468958887406598, 1791228354782534647
-0.42756229639053345, -0.18342965841293335, 0.0051895023450119655, 1791228354812787458
0.4082030653953552, -0.4157872796058655, 0.02347452602675558, 1791228354844887309
0.31465041637420654, 0.04028433561325073, 0.005251645133560228, 1791228354872480217
-0.18476587533950806, 0.2741581201553345, -0.017408833676513556, 1791228354902499113
0.7591657638549805, -0.2109384536743164, 0.028483654916487106, 1791228354932584472
0.4512045383453369, -0.041303396224975586, 0.028497189410818736, 1791228354962584912
0.07572716474533081, 0.2943297028541565, -0.015032049472555405, 1791228354992649916
-0.4238673448562622, -0.10367906093597412, -0.01746807746716366, 1791228355022674356
0.4785537123680115, 0.08851605653762817, -0.004974726758596875, 1791228355052932360
