acc_x, acc_y, angular_z, stamp, 
-0.01936095952987671, -0.007418572902679443, 3.518593542315443e-11, 1791229166704439540
-0.008571267127990723, -0.007267594337463379, 2.62455688753912e-11, 1791229166734345389
0.02533954381942749, 0.01973956823348999, 2.4679964567085153e-11, 1791229166764403793
0.010860562324523926, -0.019824743270874023, -3.574073617683428e-13, 1791229166794446928
4.309415817260742e-05, 0.021506309509277344, -9.128741365006984e-12, 1791229166823491881
0.007107257843017578, -0.00546717643737793, -1.2204123010796592e-11, 1791229166854547697
-0.003710329532623291, 0.0177038311958313, -2.3523341253095583e-11, 1791229166918142215
-0.03248792886734009, -0.012632489204406738, -2.2151331350147213e-11, 1791229167004837007
0.0324244499206543, 0.0037505626678466797, -7.818213077266199e-13, 1791229167034890152
-0.015915513038635254, 0.009498357772827148, -1.827485375573566e-11, 1791229167125745852
0.025494635105133057, 0.00774151086807251, -3.126211120406789e-11, 1791229167157568113
0.009351074695587158, 0.03081732988357544, -3.356003123251536e-11, 1791229167185220234
0.029114902019500732, -0.0053174495697021484, -1.3815674948497546e-11, 1791229167215284745
-0.005159616470336914, -0.01619035005569458, 1.5442754933796345e-11, 1791229167245205033
-0.014150023460388184, -0.003435492515563965, 4.0835929141452675e-12, 1791229167275254877
-0.006929934024810791, 0.018201887607574463, -9.833260749662174e-12, 1791229167305299778
0.02168452739715576, 0.025388658046722412, -3.7622339554904215e-12, 1791229167335614932
0.02318418025970459, -0.014116823673248291, 1.4326065225881482e-11, 1791229167366221322
-0.03642129898071289, -0.021152496337890625, 1.8025098716550888e-11, 1791229167397364319
-0.025784552097320557, 0.005867719650268555, 4.3717037727433915e-11, 1791229167427691521
0.03159981966018677, 0.0005087852478027344, 7.588430615038971e-11, 1791229167454616194
0.009692072868347168, -0.013889014720916748, 4.4323710883982366e-11, 1791229167485680643
-0.017551541328430176, 0.007781028747558594, 8.533603830867836e-11, 1791229167515692079
-0.03744304180145264, 0.009702444076538086, 3.269293900922804e-10, 1791229167545729578
0.03628641366958618, 0.040342509746551514, 1.5453465800147905e-10, 1791229167576038899
0.03793191909790039, 0.0006768703460693359, 2.4590986750571645e-10, 1791229167605834609
0.016121208667755127, 0.022160232067108154, 1.8362183908752376e-10, 1791229167637672080
-0.027075469493865967, 0.013219952583312988, 2.3187090213768164e-10, 1791229167669442702
-0.01438760757446289, 0.016709506511688232, 1.3531429155979298e-10, 1791229167695021764
0.010930657386779785, 0.016657352447509766, 1.949854812608051e-11, 1791229167724997952
0.025240719318389893, -0.024795949459075928, 1.8265127979471426e-11, 1791229167756070185
-0.02693164348602295, 0.0057228803634643555, 5.6315220095961474e-11, 1791229167786064067
-0.02507096529006958, 0.0020889639854431152, -6.871598736856248e-11, 1791229167816142311
-0.014113008975982666, -0.00343930721282959, -1.6040178256670693e-11, 1791229167846246009
0.012702763080596924, -0.005394279956817627, 1.7133019976174415e-11, 1791229167877742925
-0.001957416534423828, -0.023225724697113037, -7.266639109547934e-11, 1791229167909268414
-0.023624420166015625, -0.004998445510864258, -9.537199081390902e-11, 1791229167936404872
-0.003733992576599121, 0.01140296459197998, 1.31990832747764e-10, 1791229167966500922
0.0321277379989624, 0.0006762146949768066, 1.6177117495079548e-10, 1791229167996534167
-0.00936514139175415, -0.00470346212387085, 1.1459431809171876e-10, 1791229168026740224
-0.01647895574569702, 0.013134539127349854, 6.788595979942604e-11, 1791229168055615551
-0.0036010146141052246, 0.027354180812835693, -3.4801504344267325e-11, 1791229168085600782
0.032417893409729004, -0.001793503761291504, -2.0727805894853488e-11, 1791229168117347950
-0.005438029766082764, -0.0235099196434021, -1.0074416824906973e-10, 1791229168149540950
-0.016293883323669434, -0.00028246641159057617, -1.5423388414014648e-10, 1791229168176835298
-0.02676987648010254, 0.01412886381149292, -1.0265167317632908e-10, 1791229168206787054
0.032673776149749756, 0.006908059120178223, -5.144318821992792e-11, 1791229168236884561
0.023640036582946777, 0.006914079189300537, -4.8775922911334624e-11, 1791229168266938081
-0.008865535259246826, -0.025423109531402588, -9.21387508768393e-11, 1791229168296972491
-0.021366596221923828, 0.026612818241119385, -6.482831475999694e-11, 1791229168326967340
0.03623300790786743, -0.007696628570556641, -5.1133090512165306e-11, 1791229168357315749
0.02530074119567871, 0.008360445499420166, -5.922298687131387e-11, 1791229168389659596
-0.02161329984664917, -0.0005442500114440918, -1.1540164537723343e-10, 1791229168417252969
-0.03233742713928223, -0.022136032581329346, -1.0332838546835957e-10, 1791229168447814427
-0.02305680513381958, 0.008352220058441162, -5.3989971019255894e-11, 1791229168477813279
0.025689363479614258, -0.02760213613510132, -1.4462139651341324e-11, 1791229168507854674
-0.012120246887207031, -0.02568131685256958, -1.162892067942708e-11, 1791229168537852524
-0.013825654983520508, 0.014275014400482178, -4.431621591264774e-12, 1791229168567933428
0.011566162109375, 0.019947409629821777, -1.0793667544004845e-11, 1791229168598170748
0.018866121768951416, 0.02362924814224243, -1.6472467564585944e-11, 1791229168629216926
0.0008202195167541504, -0.0015315413475036621, -2.242141703715271e-11, 1791229168659759807
-0.006364405155181885, -0.008630454540252686, -2.580673306225494e-11, 1791229168687940982
-0.024031341075897217, 0.0021904706954956055, -4.27614301666804e-11, 1791229168717968572
0.004921257495880127, -0.012249946594238281, -5.540703362554672e-11, 1791229168746981448
0.006704390048980713, -0.0015227198600769043, -3.132525976925325e-11, 1791229168777951903
-0.02213430404663086, -0.008642196655273438, -2.4710816021890237e-11, 1791229168806981844
-0.020299911499023438, 0.004112660884857178, -3.850194215906294e-11, 1791229168838120697
0.02046811580657959, 0.04137527942657471, -2.687024217171954e-11, 1791229168869244879
0.0759134292602539, 0.02329111099243164, -0.0006827576041469793, 1791229168901196887
2.1598896980285645, 0.08977371454238892, 0.009976706887298311, 1791229168928169938
0.9494706392288208, 0.03934663534164429, 0.009249856963032816, 1791229168958132606
1.0609207153320312, -0.038124024868011475, 0.01735525552340418, 1791229168988190348
1.294651985168457, 0.023010551929473877, 0.0029032535955800017, 1791229169018205733
0.672753095626831, 0.014704406261444092, 0.00900442726529469, 1791229169048196654
0.5951828360557556, 0.08151918649673462, 0.02216090461096559, 1791229169078274101
0.8517223596572876, 0.00607144832611084, -0.0009683066207842978, 1791229169109302029
1.0443886518478394, -0.14494621753692627, 0.010900526459500594, 1791229169141563207
1.1058144569396973, 0.19032281637191772, 0.003789318590090105, 1791229169168393231
1.1641112565994263, 0.007458329200744629, 0.0033194993608721486, 1791229169198375892
1.0701589584350586, -0.5098450779914856, -0.017493189944653195, 1791229169228421593
0.3900027871131897, 0.07656490802764893, -0.018646689565939182, 1791229169258437171
0.7062892913818359, 0.06866323947906494, -0.03034943865618888, 1791229169288483150
0.862096905708313, 0.14457541704177856, 0.004395440007869954, 1791229169318582831
0.702660322189331, -0.5214422941207886, 0.01787997631688989, 1791229169349746401
-0.178910493850708, -0.016319751739501953, -0.007994742338613496, 1791229169381565514
-0.1251060962677002, 0.2183055877685547, 0.01760640287775401, 1791229169408866418
0.3369038701057434, -0.5401651859283447, 0.023947501705606798, 1791229169438811718
0.07523924112319946, 0.11536204814910889, -0.014952699489201809, 1791229169468895426
-0.07559680938720703, 0.17638927698135376, -0.021000642744578323, 1791229169498064349
0.13612276315689087, 0.18055909872055054, -0.01943492963993638, 1791229169528059319
0.017955422401428223, 0.023434162139892578, -0.015300522855577417, 1791229169558073009
0.08644759654998779, -0.19438666105270386, -0.020084092654504723, 1791229169589385856
0.1680811047554016, 0.21355831623077393, -0.008939435856235552, 1791229169621372027
-0.09530371427536011, -0.12249135971069336, -0.018211505236456725, 1791229169649236790
0.32003819942474365, -0.0551677942276001, 0.01354181858321113, 1791229169679454005
0.01761573553085327, 0.07297682762145996, 0.029388344256624097, 1791229169709260508
-0.07410413026809692, -0.4826784133911133, 0.0014366956536601247, 1791229169739222827
-0.249717116355896, 0.2472502589225769, 0.005587869881892725, 1791229169769316615
0.06369459629058838, -0.2151671051979065, 0.01097368065334363, 1791229169799366420
-0.3567538261413574, -0.0850641131401062, -0.015222142523345491, 1791229169829587576
-0.20710819959640503, 0.12270563840866089, -0.027627108253233463, 1791229169861794549
0.05039745569229126, 0.23508203029632568, -2.1564636985272623e-05, 1791229169891562711
-0.44654399156570435, 0.4489215612411499, 0.004520274670249269, 1791229169919561029
-0.03058558702468872, -0.3526610732078552, 0.0007967819523377863, 1791229169949644695
-0.01535499095916748, 0.07501369714736938, 0.02527787858066034, 1791229169979650437
-0.19683873653411865, 0.3511149287223816, 0.0026756746450244755, 1791229170009729961
-0.27759629487991333, -0.28474342823028564, 0.00713161856627218, 1791229170039762211
0.12619155645370483, -0.16227823495864868, 0.01395678585951144, 1791229170069854605
-0.28768497705459595, 0.3759121298789978, -0.016192653806108178, 1791229170101358233
-0.22187703847885132, 0.11288362741470337, -0.02312056577559771, 1791229170132934784
0.08338415622711182, -0.4300605058670044, -0.006975017057325097, 1791229170160039453
-0.15203428268432617, 0.41192448139190674, -0.013173647834087221, 1791229170188984576
-0.25947004556655884, -0.2777559161186218, -0.0308780557933198, 1791229170219011469
-0.05197983980178833, -0.06945914030075073, 0.013572864468030852, 1791229170250115296
0.0276755690574646, 0.3461344838142395, 0.022177154825794836, 1791229170280177654
-0.2624403238296509, -0.13846886157989502, 0.013604098015518823, 1791229170310214715
-0.15624231100082397, 0.1990106701850891, 0.015441036188465653, 1791229170341621250
0.16151928901672363, 0.16645878553390503, 0.008782685160518252, 1791229170374111571
-0.0882561206817627, 0.23965144157409668, 0.015581997664624597, 1791229170400471612
0.0731048583984375, -0.05335056781768799, 0.009996096847890323, 1791229170430409107
0.12350481748580933, 0.4010677933692932, -0.006805307096651805, 1791229170453662572
0.12046509981155396, 0.353657603263855, -0.027163754321292203, 1791229170480575028
-0.26013100147247314, -0.431002140045166, -0.016643812126361252, 1791229170510548804
0.1081230640411377, 0.33425647020339966, 0.020340666015408394, 1791229170540565054
0.1307395100593567, 0.14840108156204224, 0.0008966882755162441, 1791229170570622477
-0.20759636163711548, -0.17601323127746582, 0.00291369972716836, 1791229170600657057
0.18254858255386353, -0.04064685106277466, 0.032774072642003105, 1791229170630701631
0.4436400532722473, 0.40575647354125977, 0.020211551764447763, 1791229170661727993
-0.09669482707977295, 0.11218172311782837, 0.0014210172383122349, 1791229170693828061
-0.16782212257385254, -0.2853695750236511, 0.008115967438237994, 1791229170720946797
0.47175949811935425, 0.29100990295410156, -0.012186769056774087, 1791229170750913356
-0.05812019109725952, -0.30322694778442383, -0.025942754002965664, 1791229170780000619
0.40636390447616577, -0.43283456563949585, -0.023044280283399905, 1791229170811085582
0.15353864431381226, 0.21568447351455688, -0.008250822693830547, 1791229170841107151
-0.02436596155166626, -0.36516696214675903, 0.010857715968137524, 1791229170871213739
0.4304133653640747, 0.17162680625915527, 0.0035005689519387296, 1791229170901350299
-0.13089758157730103, -0.11878758668899536, 0.000656916997546565, 1791229170933404186
0.09228235483169556, 0.1900201439857483, 0.00963033349689792, 1791229170961727470
-0.0045018792152404785, 0.14558666944503784, 0.016890879279650366, 1791229170991381189
0.19340163469314575, -0.44053810834884644, 0.0006730631979793938, 1791229171021378440
-0.6557492613792419, 0.10397326946258545, -0.01799690455461272, 1791229171051451348
0.29089468717575073, -0.009868323802947998, -0.01735707738449587, 1791229171081478436
-0.21198809146881104, -0.37677574157714844, 0.009465693822436042, 1791229171111657185
-0.0797276496887207, 0.1657947301864624, -0.006609243033433838, 1791229171141838271
-0.09623712301254272, -0.0774068832397461, -0.013804447737410633, 1791229171173625397
-0.011353611946105957, -0.0674847960472107, -0.0022556082223256107, 1791229171203697066
-0.07514935731887817, -0.03277164697647095, 0.001114122287124302, 1791229171231682970
-0.5769973397254944, 0.31729090213775635, 0.00311195276218808, 1791229171260727210
0.042796552181243896, -0.38219356536865234, 0.002016861159449768, 1791229171282982500
-0.3388112187385559, 0.11340802907943726, 0.0031237990162792544, 1791229171321816712
-0.3754066824913025, 0.17886900901794434, -0.006736692442902595, 1791229171351933175
0.4517826437950134, -0.20482081174850464, 0.007724881108177824, 1791229171380993213
-0.07224220037460327, 0.2746850848197937, -0.014439796385599904, 1791229171413614915
0.09964954853057861, 0.26111507415771484, -0.02088504666145887, 1791229171445104328
-0.11098247766494751, -0.3304717540740967, 0.009316956849164306, 1791229171472144948
0.22936546802520752, 0.089710533618927, 0.008238307408806357, 1791229171502169887
-0.19845443964004517, 0.005196928977966309, -0.0003573762659767284, 1791229171532224471
-0.3011501431465149, -0.06717514991760254, 0.008747904432844017, 1791229171562265069
0.5015923380851746, -0.2768288850784302, 0.02831353340215133, 1791229171592295193
-0.6150053143501282, 0.10127413272857666, 0.019664840051119563, 1791229171622376553
1.0508440732955933, 0.1644466519355774, 0.0031335714725993, 1791229171653870995
-0.3235316276550293, -0.5029436349868774, -0.014036989175005045, 1791229171685542375
0.27943170070648193, 0.07778650522232056, -0.02210892288020816, 1791229171712512991
-0.43493735790252686, 0.2538887858390808, -0.01903569915724187, 1791229171742550062
0.1668749451637268, -0.11853963136672974, -0.01775811801690578, 1791229171772717760
0.0020242929458618164, -0.31979209184646606, -0.018722984740700187, 1791229171802643800
-0.10777735710144043, 0.3185175657272339, -0.0027126567986731943, 1791229171832709755
0.6189864873886108, -0.041609108448028564, 0.026687919855472985, 1791229171862775546
0.06580156087875366, 0.08605754375457764, 0.007857215438133457, 1791229171893721852
0.5163691639900208, 0.08756864070892334, 0.0048192156885261935, 1791229171925581396
0.15148425102233887, -0.17275089025497437, 0.010071157464689173, 1791229171952000753
0.01827174425125122, -0.31294649839401245, -0.0023336859506767143, 1791229171982956446
0.19081223011016846, 0.22850406169891357, -0.013812835698711856, 1791229172011991993
0.27011680603027344, -0.4176555871963501, -0.027014879951771764, 1791229172043060685
0.33797216415405273, -0.05630117654800415, -0.005817801991503432, 1791229172073086500
-0.14936167001724243, -0.32566702365875244, 0.022372224890228522, 1791229172103146003
0.8138063549995422, 0.2919617295265198, 0.024400154034228804, 1791229172133613251
0.08788478374481201, 0.03423207998275757, 0.0026102138469151505, 1791229172165948520
-0.46594691276550293, -0.46713340282440186, 0.01113085445863945, 1791229172193343560
0.740850031375885, 0.47954416275024414, 0.03697286640234102, 1791229172223294623
0.02056598663330078, -0.106930673122406, -0.003869145618996457, 1791229172253344393
-0.12282353639602661, -0.34232819080352783, -0.022563996351588362, 1791229172283570885
-0.4841681122779846, 0.0975150465965271, -0.019711817173658146, 1791229172313569402
0.143140971660614, 0.2456880807876587, -0.024205125196702544, 1791229172343681458
-0.2276422381401062, 0.2319088578224182, -0.020932588613577725, 1791229172373635095
0.017474889755249023, -0.35679328441619873, -9.303820295891737e-05, 1791229172406042264
0.14541465044021606, 0.24251538515090942, 0.015549277920069977, 1791229172433764218
0.10748428106307983, -0.1841346025466919, -0.007008601665977199, 1791229172463813268
0.43539273738861084, -0.04104870557785034, 0.024290383316629072, 1791229172493768818
0.09573644399642944, 0.3597278594970703, 0.013087195611454617, 1791229172523798494
-0.304773211479187, -0.08220696449279785, -0.00927467787286619, 1791229172553883715
0.018792331218719482, 0.0911414623260498, 0.0027944351562467717, 1791229172583912876
0.4070454239845276, 0.05328184366226196, -0.022295195617038063, 1791229172613011676
0.12645739316940308, 0.383057177066803, -0.02249719770569893, 1791229172645738746
0.03992748260498047, 0.08370965719223022, -0.003973434594657361, 1791229172677083549
0.8110974431037903, -0.35808706283569336, 0.024875114841613685, 1791229172704153136
-0.41886287927627563, 0.3618839979171753, 0.00862027074633063, 1791229172734125713
0.12233340740203857, -0.3212893009185791, 0.0081131926871289, 1791229172764188481
0.1401149034500122, -0.4168804883956909, 0.037101316988423665, 1791229172794225395
0.17797279357910156, 0.505029022693634, 0.01804652297354811, 1791229172824307301
0.36626797914505005, -0.14372634887695312, -0.020335980934593052, 1791229172854379569
-0.07124114036560059, -0.36964815855026245, -0.011514428168508681, 1791229172885738723
0.486461341381073, 0.032150089740753174, -0.022991810437860617, 1791229172917819715
0.007681727409362793, 0.39177095890045166, -0.03342295982895813, 1791229172944603554
