acc_x, acc_y, angular_z, stamp, 
0.0178680419921875, 0.020952284336090088, 0.0012951067518526733, 1791229182540158686
0.017215847969055176, -0.004598259925842285, -0.0020616727834021275, 1791229182570192670
0.031247079372406006, -0.03113245964050293, -0.0008272041891051586, 1791229182600303510
-0.0027115345001220703, 0.0029892325401306152, 0.0005980016102580449, 1791229182629431718
-0.019330143928527832, 0.013332903385162354, 0.0013959836166423554, 1791229182660990632
0.039115726947784424, -0.00492936372756958, -0.0009213653874500753, 1791229182720571209
0.000918269157409668, 0.004170417785644531, 0.0002110998816317941, 1791229182750526233
-0.04944908618927002, 0.01117318868637085, 4.206310552883436e-06, 1791229182780572958
-0.0025426745414733887, 0.016297459602355957, 2.2078110515802407e-06, 1791229182810631002
0.00814664363861084, -0.007520139217376709, 4.179430333113865e-06, 1791229182840661876
-0.0027164816856384277, -0.007522940635681152, 2.17768497919101e-06, 1791229182870722671
-0.01339501142501831, -0.00041663646697998047, 2.1501832043112476e-06, 1791229182900978585
-0.007623076438903809, 0.022854208946228027, 1.942398447654947e-06, 1791229182934326441
0.01782780885696411, 0.01009213924407959, 2.4222992372774683e-06, 1791229182960950987
-0.001961231231689453, 0.002620995044708252, 2.1442801789513373e-06, 1791229182990885896
-0.014473259449005127, 0.007846236228942871, 2.1964283501541418e-06, 1791229183019980945
0.018404603004455566, 0.014554858207702637, 2.042395287815685e-06, 1791229183081043494
0.025667846202850342, -0.010834276676177979, 2.1035568163591434e-06, 1791229183111105632
-0.01039731502532959, -0.009047448635101318, 1.994409558759116e-06, 1791229183142679144
-0.03008401393890381, -0.009062767028808594, 9.810943883820461e-08, 1791229183174489274
0.020442545413970947, 0.019600749015808105, 2.330707227775634e-06, 1791229183201325311
0.01681065559387207, 0.019316256046295166, 2.0790110089611897e-06, 1791229183231313364
-0.008571445941925049, -0.022225260734558105, 2.124799837409961e-06, 1791229183260572341
0.009338438510894775, 0.0011330842971801758, 7.657809467055229e-08, 1791229183291404651
0.005787551403045654, 0.022655844688415527, 2.0572367956174973e-06, 1791229183321442225
0.04516726732254028, 0.0027660727500915527, 2.0293818529450116e-06, 1791229183351844038
0.01407933235168457, -0.01518338918685913, 6.069576452720828e-08, 1791229183382315873
-0.011561810970306396, -0.025896728038787842, 3.9384647015771e-06, 1791229183413009184
-0.018804967403411865, 0.0049402713775634766, 6.2875139242567895e-06, 1791229183441687335
0.03509783744812012, -0.009364128112792969, 7.989195265689115e-06, 1791229183471703075
0.015177607536315918, -0.011045873165130615, 5.996243566018464e-06, 1791229183501734764
-0.004752814769744873, -0.010797679424285889, 4.0021007631737795e-06, 1791229183531802780
-0.017349600791931152, -0.016008198261260986, 3.3910114261747276e-08, 1791229183561866775
-0.008175969123840332, 0.009240925312042236, 3.156264576949008e-08, 1791229183591880053
0.03676104545593262, 0.00021153688430786133, 2.9207291601466547e-08, 1791229183622263709
-0.003013014793395996, -0.037333011627197266, 2.5062644483239843e-08, 1791229183654449240
-0.024629831314086914, 0.0025274157524108887, 2.173491911719166e-06, 1791229183682194463
-0.01176232099533081, 0.03128790855407715, 2.010789712449802e-06, 1791229183712166986
0.013600289821624756, -0.010290920734405518, 2.0040912352076256e-06, 1791229183742229067
0.009969949722290039, -0.026471197605133057, 2.0235026186444386e-08, 1791229183772286927
-0.024244844913482666, -0.010136783123016357, 1.8838107413343092e-08, 1791229183802555434
0.004607737064361572, 0.02075248956680298, 2.0032044359019074e-06, 1791229183832556935
0.0065544843673706055, 0.014865458011627197, 6.528570367006082e-09, 1791229183862691636
0.06741607189178467, -0.0010062456130981445, -0.002115640784404455, 1791229183893062351
2.0251517295837402, -0.3540886640548706, -0.027617734715562628, 1791229183924516943
0.5731127262115479, 0.004180431365966797, -0.14864828862754134, 1791229183952449906
1.1229026317596436, 0.03738689422607422, -0.1936131069334986, 1791229183982482576
0.5843005776405334, -0.13861161470413208, -0.2551041395052259, 1791229184012572724
-0.2520145773887634, -0.1171448826789856, -0.3079985746046533, 1791229184042595428
-0.33327925205230713, 0.04598188400268555, -0.27390103341671196, 1791229184072666578
-0.18242669105529785, 0.013117611408233643, -0.26419340769229177, 1791229184102756997
-0.18326997756958008, -0.09690165519714355, -0.2820654090670817, 1791229184134082243
0.12832289934158325, 0.01710951328277588, -0.2773466200036104, 1791229184166040405
-0.027267038822174072, -0.2802712917327881, -0.32183174661987735, 1791229184192884577
-0.03381764888763428, -0.11037629842758179, -0.2743135185461482, 1791229184223565937
0.06323158740997314, 0.26707643270492554, -0.29397809669686636, 1791229184253601709
-0.0063582658767700195, -0.1179857850074768, -0.32534018990179103, 1791229184283600913
-0.057078421115875244, -0.29001951217651367, -0.31071299850721207, 1791229184313683322
0.1719791293144226, 0.1669522523880005, -0.29529360924200115, 1791229184343625114
-0.13763147592544556, -0.05903750658035278, -0.2928164097062078, 1791229184374389612
-0.05862003564834595, -0.05769002437591553, -0.27994104306286427, 1791229184406429827
-0.3004899024963379, 0.09194082021713257, -0.3286625986584737, 1791229184433708941
0.1368362307548523, -0.02536952495574951, -0.29995043513423847, 1791229184463690104
0.09167253971099854, -0.0231131911277771, -0.27278930752593944, 1791229184493725970
-0.03256863355636597, 0.04057389497756958, -0.2905514625035816, 1791229184523369259
-0.22995907068252563, -0.1625099778175354, -0.30541833887331815, 1791229184553413452
0.10163366794586182, 0.11027675867080688, -0.29464005885503064, 1791229184583494337
0.016695082187652588, -0.12406450510025024, -0.29101461772895937, 1791229184614789124
0.031723737716674805, -0.06858545541763306, -0.30207549027549274, 1791229184646240688
0.22984296083450317, 0.09001117944717407, -0.3249861827225277, 1791229184673739884
-0.06669348478317261, -0.08516889810562134, -0.3182617251583794, 1791229184703669853
-0.03660935163497925, -0.2869455814361572, -0.2929328524318293, 1791229184733757215
-0.10191583633422852, 0.25998324155807495, -0.27600911358003094, 1791229184763803888
-0.03432619571685791, -0.008817195892333984, -0.31317456182382564, 1791229184793836449
-0.24396425485610962, -0.25073468685150146, -0.31400795922197833, 1791229184823064407
0.15750807523727417, 0.14761358499526978, -0.2908498712448898, 1791229184854371131
-0.3742597699165344, -0.12598276138305664, -0.2918832210812018, 1791229184886218690
0.3744388818740845, 0.0021938681602478027, -0.3232606699038371, 1791229184914085065
-0.2530832886695862, 0.036677420139312744, -0.28554395941832705, 1791229184944040454
0.18250256776809692, -0.11875367164611816, -0.29997273003284225, 1791229184974100595
0.05369091033935547, 0.11526352167129517, -0.31336040391240244, 1791229185004161688
-0.12990301847457886, -0.1894305944442749, -0.30734533924968516, 1791229185034206222
-0.07218176126480103, -0.22831618785858154, -0.2923884317919547, 1791229185064280321
-0.0842791199684143, 0.30492037534713745, -0.2864814286808869, 1791229185094343321
-0.08676302433013916, -0.09216135740280151, -0.27078697998082185, 1791229185126659371
-0.04924136400222778, -0.17153656482696533, -0.31638764951251813, 1791229185155981479
-0.00042301416397094727, 0.22999072074890137, -0.32608974651167505, 1791229185184622982
0.18678593635559082, -0.2606792449951172, -0.2997914370424578, 1791229185214593522
0.008519113063812256, -0.18533504009246826, -0.26327836607099286, 1791229185237401758
-0.48186343908309937, 0.11828553676605225, -0.31622925408868513, 1791229185274630446
-0.04523533582687378, -0.245993971824646, -0.30147351518726595, 1791229185304641766
0.11767113208770752, 0.22254407405853271, -0.3147079379203138, 1791229185334712425
0.1996936798095703, -0.24835121631622314, -0.2857323913430713, 1791229185366251203
0.04767721891403198, -0.12122678756713867, -0.2716604956718914, 1791229185397273657
-0.031300127506256104, 0.15533339977264404, -0.30796135064591823, 1791229185424933922
-0.3368222713470459, 0.017294228076934814, -0.3107799940203475, 1791229185454886333
-0.03509634733200073, -0.20156866312026978, -0.306499772754043, 1791229185484939208
0.11153852939605713, 0.03372293710708618, -0.3105266050804105, 1791229185514004048
0.3294742703437805, -0.02225571870803833, -0.28802923512987577, 1791229185545020800
-0.13973712921142578, -0.07292306423187256, -0.2801490556311374, 1791229185575118305
-0.03727656602859497, 0.0025205612182617188, -0.27412912603961026, 1791229185606401317
-0.3893251419067383, -0.07456433773040771, -0.2827264714804264, 1791229185638607488
0.0854271650314331, 0.08274614810943604, -0.33760594403934036, 1791229185665315934
-0.1712234616279602, 0.018963396549224854, -0.30214467714606913, 1791229185695332732
0.0997886061668396, -0.13968849182128906, -0.2987812161185336, 1791229185725421099
0.16774487495422363, 0.049877047538757324, -0.2794060566254126, 1791229185755394383
0.08685201406478882, -0.15378981828689575, -0.28764027570492673, 1791229185785426917
-0.2801642417907715, -0.07916420698165894, -0.3024109102185259, 1791229185814508223
-0.1435631513595581, 0.26393377780914307, -0.27457809475887457, 1791229185846797263
0.08819568157196045, -0.24188899993896484, -0.3009597038866227, 1791229185878231696
0.028150320053100586, -0.2668496370315552, -0.32906679402022837, 1791229185905647055
0.011370360851287842, 0.2313917875289917, -0.27611906352139737, 1791229185935665867
-0.08402508497238159, 0.023257553577423096, -0.2979776275607371, 1791229185965723872
-0.013160407543182373, -0.16595351696014404, -0.3022853454261062, 1791229185995867516
0.0983496904373169, -0.03922700881958008, -0.29287016869765187, 1791229186025833371
0.228213369846344, 0.01339489221572876, -0.31091202976147897, 1791229186055920016
0.05884659290313721, -0.0347820520401001, -0.29171219434715834, 1791229186086732798
-0.08561676740646362, 0.05555051565170288, -0.2704056484794815, 1791229186118405160
-0.27436548471450806, -0.12307888269424438, -0.3098529346267994, 1791229186146114024
0.12130147218704224, 0.05432921648025513, -0.2958295150069967, 1791229186176075718
0.06337356567382812, -0.03508108854293823, -0.3139315211291923, 1791229186206149323
-0.02534925937652588, -0.06078428030014038, -0.3114396028333744, 1791229186236205133
-0.10129576921463013, 0.15715420246124268, -0.28925450229277294, 1791229186266234968
0.18167173862457275, -0.21239668130874634, -0.2822888337005994, 1791229186296271352
-0.2707017660140991, -0.12890934944152832, -0.2919363677701514, 1791229186326317419
-0.10846656560897827, 0.3440755009651184, -0.2853382260935193, 1791229186358284565
0.161943256855011, -0.055935025215148926, -0.3261526522599507, 1791229186388077873
0.26859283447265625, -0.3170868754386902, -0.3263507730660799, 1791229186416453451
0.208301842212677, 0.1990174651145935, -0.2857125587004267, 1791229186446492245
-0.2980998158454895, -0.03692752122879028, -0.280306832847374, 1791229186476552010
0.025884151458740234, -0.10769164562225342, -0.29234414066228126, 1791229186506630471
-0.07539629936218262, 0.04087662696838379, -0.3344115011169639, 1791229186536685637
-0.03610914945602417, -0.13162094354629517, -0.3198486344926805, 1791229186566785587
0.3156026005744934, -0.05872005224227905, -0.2714593651728735, 1791229186598691505
-0.1630956530570984, 0.023686707019805908, -0.2813418072682402, 1791229186630158870
-0.13970255851745605, -0.08471214771270752, -0.31188361307584245, 1791229186657057557
0.11293518543243408, 0.2885981798171997, -0.29928399340737705, 1791229186685998219
-0.21762198209762573, -0.08989042043685913, -0.32193611789011417, 1791229186716011190
0.16067832708358765, -0.16165542602539062, -0.30160946429634056, 1791229186746014096
-0.021184980869293213, 0.19193905591964722, -0.27452079588049066, 1791229186777062890
-0.15322637557983398, -0.07294702529907227, -0.2910504567310759, 1791229186807100359
0.15911626815795898, -0.16137075424194336, -0.2704821900777338, 1791229186838337243
0.02629697322845459, 0.07191890478134155, -0.29089574087347075, 1791229186870138315
-0.16114598512649536, -0.05168735980987549, -0.3589556878305767, 1791229186897446066
0.07728618383407593, -0.017453670501708984, -0.3051688305616425, 1791229186927303878
-0.017754673957824707, -0.10014510154724121, -0.2895099280198162, 1791229186957385521
-0.27733296155929565, 0.0847313404083252, -0.29133013983116934, 1791229186987441418
0.11493802070617676, 0.0652850866317749, -0.2688874415694926, 1791229187017534074
0.09866416454315186, -0.22691476345062256, -0.321566218767812, 1791229187046512182
0.0019235610961914062, -0.13760745525360107, -0.29847969935857627, 1791229187078579718
-0.11349129676818848, 0.16628003120422363, -0.26911042198210766, 1791229187110860870
0.06118828058242798, -0.12468582391738892, -0.3318802930173953, 1791229187137774963
-0.3584740161895752, -0.12372159957885742, -0.3012784574271122, 1791229187167732754
0.33631253242492676, 0.08597749471664429, -0.2981407293140874, 1791229187197752449
-0.35664647817611694, -0.029413819313049316, -0.31433707093727403, 1791229187227804527
-0.060786306858062744, 0.10104835033416748, -0.3003170058130991, 1791229187257839474
0.10115337371826172, -0.06090587377548218, -0.2904784707452878, 1791229187287916398
-0.0830918550491333, -0.18384110927581787, -0.28762934125441586, 1791229187318893042
-0.1084253191947937, 0.09111756086349487, -0.2642994221562504, 1791229187350176729
-0.08309119939804077, 0.01455610990524292, -0.2922213202552066, 1791229187378071212
-0.06479281187057495, -0.06252825260162354, -0.2967782856111614, 1791229187408790731
0.18547487258911133, 0.07473456859588623, -0.3124554479476216, 1791229187438721629
-0.008149325847625732, -0.13894295692443848, -0.29831230613341353, 1791229187468788152
0.053951919078826904, -0.10105150938034058, -0.2890786616751883, 1791229187498748253
-0.04646420478820801, 0.20993274450302124, -0.28873210344776945, 1791229187528854335
-0.09553033113479614, -0.18942391872406006, -0.3090304643024967, 1791229187558871745
0.20786023139953613, -0.11420148611068726, -0.30078259704049704, 1791229187590291541
-0.02341383695602417, 0.20461630821228027, -0.2985781111411513, 1791229187620006465
-0.08467322587966919, -0.04039192199707031, -0.3027307866536174, 1791229187648038048
-0.14321446418762207, -0.16360223293304443, -0.2698290041368945, 1791229187678889790
0.08977311849594116, 0.10964024066925049, -0.2957141786516587, 1791229187708901054
-0.09221720695495605, -0.06253677606582642, -0.324376985868697, 1791229187738876856
-0.11076593399047852, 0.015756070613861084, -0.3186937007895581, 1791229187768925268
-0.22549813985824585, 0.07359534502029419, -0.2978378647311791, 1791229187798951415
0.4926339387893677, -0.09284502267837524, -0.25539715287557163, 1791229187830315562
-0.19047313928604126, 0.009996533393859863, -0.2563659612365575, 1791229187862037075
-0.1070936918258667, -0.0010638236999511719, -0.32301473388573715, 1791229187889184599
0.0930446982383728, -0.144361674785614, -0.3124447878991943, 1791229187919126307
0.4010847210884094, 0.18659275770187378, -0.31338804363963907, 1791229187949166496
0.09710508584976196, -0.16592752933502197, -0.29050376272363376, 1791229187979199189
-0.043830692768096924, -0.24295639991760254, -0.282589941106036, 1791229188009195962
0.10979753732681274, 0.19430899620056152, -0.291482423608927, 1791229188039392267
-0.253820538520813, -0.0352054238319397, -0.3161005587810436, 1791229188070712525
0.05601048469543457, 0.03083205223083496, -0.3007147732012567, 1791229188102267640
-0.05375182628631592, -0.11347723007202148, -0.3257170297722975, 1791229188129644859
0.02060908079147339, -0.25804001092910767, -0.2885867803849853, 1791229188159525502
0.13089364767074585, 0.1771143078804016, -0.285020662498665, 1791229188189407415
-0.13980072736740112, -0.06759417057037354, -0.3133148731764571, 1791229188219425507
-0.16102206707000732, -0.182295560836792, -0.3145338110669074, 1791229188249457991
0.03117424249649048, 0.3206660747528076, -0.2975810177428443, 1791229188279539335
-0.02461063861846924, -0.17218685150146484, -0.28938523587851933, 1791229188310804177
0.08426451683044434, -0.16546714305877686, -0.280583169541727, 1791229188342568052
0.17714494466781616, 0.25352901220321655, -0.31078113310673455, 1791229188369945974
-0.10661011934280396, -0.11056506633758545, -0.3010967816750092, 1791229188400049620
-0.21981126070022583, -0.14161252975463867, -0.30264966836581375, 1791229188429824520
0.008059382438659668, 0.05785322189331055, -0.3002050162649651, 1791229188459800935
0.228288471698761, -0.16567003726959229, -0.29198590522277684, 1791229188489863058
-0.07183510065078735, 0.27204519510269165, -0.2844503853965308, 1791229188519937553
-0.15125644207000732, -0.1123623251914978, -0.2658326737495334, 1791229188550271128
0.18349647521972656, -0.1294531226158142, -0.2728950115387764, 1791229188582685053
-0.06631737947463989, 0.14742034673690796, -0.3488151538496602, 1791229188610181080
-0.3104299306869507, -0.10388821363449097, -0.32178631537316477, 1791229188640141780
0.1458095908164978, -0.3228676915168762, -0.28773054715541857, 1791229188670188216
0.006236553192138672, 0.3805882930755615, -0.2782420362396916, 1791229188700205754
0.2991083860397339, -0.11964213848114014, -0.28888199043522556, 1791229188730234291
-0.31819039583206177, -0.22218745946884155, -0.30505843464468607, 1791229188760303388
-0.004031181335449219, 0.21487706899642944, -0.30081350181570626, 1791229188790313914
0.040477752685546875, -0.02074277400970459, -0.2807765552188139, 1791229188822235362
0.04045206308364868, -0.19876182079315186, -0.2952687979137586, 1791229188852521170
-0.014042973518371582, -0.04463493824005127, -0.315281011347638, 1791229188880482989
-0.15821468830108643, 0.08165174722671509, -0.2863131073898184, 1791229188910600618
-0.13003236055374146, 0.1577361822128296, -0.29061585840114135, 1791229188940563540
0.06403142213821411, -0.08389359712600708, -0.31714029294501717, 1791229188970651319
-0.07776206731796265, -0.2430468201637268, -0.3064887063347504, 1791229189000691052
0.1984279751777649, 0.15102297067642212, -0.2844549958812855, 1791229189030763488
-0.011960268020629883, -0.16682320833206177, -0.27787716814433155, 1791229189062259521
-0.06919819116592407, -0.21043694019317627, -0.26734371993481604, 1791229189094195749
0.05538898706436157, 0.24479418992996216, -0.3407776245712621, 1791229189121029294
-0.2782881259918213, -0.10220462083816528, -0.3208815460378958, 1791229189150946358
0.031366705894470215, -0.24425184726715088, -0.2981604097130898, 1791229189179977838
-0.13727128505706787, 0.2585263252258301, -0.2703531266470586, 1791229189211076611
0.04306608438491821, -0.0897061824798584, -0.29834601679032735, 1791229189241076243
-0.2307131290435791, -0.21886849403381348, -0.2884077151112613, 1791229189271138609
0.16193842887878418, 0.19647568464279175, -0.2830542583060194, 1791229189302259697
-0.22786301374435425, -0.05572390556335449, -0.28301257457187834, 1791229189334580831
0.6352443695068359, -0.18107253313064575, -0.32446687721824635, 1791229189361330279
-0.2637934684753418, 0.015435516834259033, -0.29534601564148716, 1791229189391317410
-0.16184306144714355, 0.08350944519042969, -0.3213436014759907, 1791229189421392329
-0.00809025764465332, -0.07211333513259888, -0.316824109135655, 1791229189451421134
-0.0618443489074707, 0.07701027393341064, -0.310942569127091, 1791229189481529591
-0.18652349710464478, -0.18553048372268677, -0.26693180827549495, 1791229189511788696
0.07354980707168579, 0.09082859754562378, -0.2751217118972502, 1791229189540989766
-0.010100483894348145, -0.03406476974487305, -0.27143357943516044, 1791229189573348038
-0.1142072081565857, 0.0038864612579345703, -0.30742340814991176, 1791229189601711125
0.1589311957359314, -0.00130462646484375, -0.29051660989605155, 1791229189631726256
-0.05417025089263916, -0.06539195775985718, -0.32309979397876204, 1791229189661784779
0.2854160666465759, -0.10536986589431763, -0.30367225284083127, 1791229189691808348
-0.17911410331726074, -0.08877366781234741, -0.2839177115348444, 1791229189721865278
-0.16579294204711914, -0.13989007472991943, -0.2992664059462288, 1791229189751926455
-0.14180439710617065, 0.28118520975112915, -0.2985863652969354, 1791229189782351589
0.02995777130126953, -0.11305320262908936, -0.299093896127319, 1791229189814452545
-0.06266927719116211, -0.2351226806640625, -0.3417991267793615, 1791229189842151081
0.33611762523651123, 0.23506689071655273, -0.287646702973595, 1791229189872087269
0.0608593225479126, -0.10862451791763306, -0.2886340392573944, 1791229189902202318
0.09320724010467529, -0.22914189100265503, -0.28956577046115994, 1791229189932297808
-0.4745192527770996, 0.2962380647659302, -0.3045214453744845, 1791229189962271958
-0.014112412929534912, -0.09238278865814209, -0.33264585357638765, 1791229189992301179
0.2308638095855713, -0.1939830780029297, -0.3133308311244341, 1791229190022414117
0.07505840063095093, 0.26958543062210083, -0.2780331255973801, 1791229190054839572
-0.2373921275138855, -0.10070276260375977, -0.3064356736329484, 1791229190082490323
0.3341383934020996, 0.009932518005371094, -0.2775449363705063, 1791229190112531455
-0.4386746883392334, 0.056677818298339844, -0.3051166896623982, 1791229190142564666
-0.03385859727859497, -0.10101526975631714, -0.30894948069952904, 1791229190172610274
0.3333168029785156, -0.044139325618743896, -0.2766165083381011, 1791229190202636076
0.08123373985290527, 0.006620526313781738, -0.2976086512431253, 1791229190231696157
-0.001958131790161133, -0.10955649614334106, -0.2682402397147041, 1791229190262860858
-0.22754031419754028, 0.2014821171760559, -0.26672023835812175, 1791229190294370414
-0.12287533283233643, -0.24412685632705688, -0.2965705980092125, 1791229190325076020
0.030087769031524658, -0.1720418930053711, -0.33837535789904977, 1791229190352930015
0.3752007484436035, 0.22844481468200684, -0.2971828445114509, 1791229190382946955
-0.03059840202331543, -0.16041713953018188, -0.29303451990403134, 1791229190413066695
-0.15284252166748047, -0.10652101039886475, -0.28165774284647965, 1791229190443040021
-0.13736861944198608, 0.20174652338027954, -0.2835279352943961, 1791229190473099002
0.15013688802719116, -0.018033206462860107, -0.3193275901661714, 1791229190503181094
-0.09867072105407715, -0.09246456623077393, -0.3001767948088607, 1791229190534345879
0.2557644844055176, -0.01239633560180664, -0.2784500620005069, 1791229190566898330
0.05367690324783325, -0.12963789701461792, -0.32595704423379024, 1791229190593437664
-0.0668218731880188, -0.00646895170211792, -0.2731595386279107, 1791229190623330520
-0.172632098197937, -0.036660075187683105, -0.29381681412680477, 1791229190653369571
-0.4458323121070862, -0.07352936267852783, -0.32493297686909256, 1791229190683423436
0.20104628801345825, 0.03006976842880249, -0.31161233062782995, 1791229190713712736
0.20605331659317017, -0.18088090419769287, -0.3080234094192677, 1791229190743503747
0.010551750659942627, -0.06983453035354614, -0.27494169898744236, 1791229190774661545
-0.1365845799446106, 0.1981397271156311, -0.26563655172379785, 1791229190806462953
0.10115474462509155, -0.23167681694030762, -0.3393121149712259, 1791229190833630894
-0.17656952142715454, -0.28404998779296875, -0.32084194338694483, 1791229190863734367
0.3008493185043335, 0.266728937625885, -0.32070856948220394, 1791229190893774023
-0.2436460256576538, -0.06057155132293701, -0.3061693665219337, 1791229190923862825
-0.027015089988708496, 0.049817442893981934, -0.275842127048941, 1791229190954089891
-0.285419762134552, -0.10937511920928955, -0.28523235089804283, 1791229190982980691
0.031973958015441895, -0.139174222946167, -0.2788322620575767, 1791229191014849818
-0.10328114032745361, 0.1373119354248047, -0.28698817082897493, 1791229191046564343
0.007831096649169922, -0.12232989072799683, -0.33675643269819, 1791229191074174290
0.0828254222869873, -0.19034558534622192, -0.3058617765510313, 1791229191104189501
-0.06002235412597656, 0.18285024166107178, -0.2868460947322889, 1791229191134160600
-0.18667858839035034, -0.027894318103790283, -0.2755830101508672, 1791229191164212302
-0.13104158639907837, -0.07023048400878906, -0.2880535777122573, 1791229191194248351
0.05919700860977173, 0.0012943148612976074, -0.30291332666728665, 1791229191224555335
0.03327983617782593, -0.11517727375030518, -0.2985628803329861, 1791229191254649232
-0.15978139638900757, -0.022011995315551758, -0.26121071565310916, 1791229191286913472
-0.15942931175231934, 0.06123477220535278, -0.31149104951208634, 1791229191314528216
0.062103450298309326, -0.12513798475265503, -0.29228621273601824, 1791229191344962428
0.14572501182556152, 0.02368617057800293, -0.3079678811525289, 1791229191374548231
-0.24339836835861206, 0.27638810873031616, -0.28013957169993114, 1791229191396718443
-0.011687278747558594, -0.08003354072570801, -0.32785124983969277, 1791229191424786123
0.23590606451034546, -0.15585529804229736, -0.2908576833973642, 1791229191454686401
-0.10109472274780273, 0.014958560466766357, -0.297512170851022, 1791229191484790840
-0.06289875507354736, 0.010058283805847168, -0.3038372726643826, 1791229191514797321
0.0882875919342041, -0.02208852767944336, -0.3081102505188245, 1791229191544870797
-0.06254518032073975, -0.011764049530029297, -0.32841674931176723, 1791229191574938133
-0.04392528533935547, -0.15421247482299805, -0.2803920285640528, 1791229191606694515
0.31177258491516113, 0.054748594760894775, -0.2734582647729602, 1791229191637761254
-0.17374801635742188, -0.19784265756607056, -0.33824209413768686, 1791229191665097148
-0.17415106296539307, -0.017574667930603027, -0.2976101828899884, 1791229191695048396
-0.003958582878112793, 0.2624240517616272, -0.2975258444692942, 1791229191725119639
-0.272968053817749, -0.18354284763336182, -0.31305602325057835, 1791229191755170673
0.3216884136199951, -0.24057316780090332, -0.27446843460341747, 1791229191785204221
-0.23947900533676147, 0.30640679597854614, -0.2759110140713084, 1791229191815319179
0.041714608669281006, -0.07737213373184204, -0.26869320909329897, 1791229191847096490
0.03629148006439209, -0.12037354707717896, -0.28056212487670756, 1791229191878609786
-0.017875730991363525, 0.058872878551483154, -0.349275661697034, 1791229191905471046
0.01972055435180664, -0.13890671730041504, -0.30568293495940047, 1791229191935505085
-0.05177140235900879, 0.06053292751312256, -0.2853571980123713, 1791229191965537687
-0.14041543006896973, -0.1005549430847168, -0.2741158447782017, 1791229191995576241
0.12384456396102905, -0.03855043649673462, -0.27692338958983775, 1791229192025625629
-0.07359427213668823, 0.15240561962127686, -0.28281303840539795, 1791229192055703261
0.04217541217803955, -0.124908447265625, -0.30048444662863405, 1791229192086661784
-0.04324299097061157, -0.15139305591583252, -0.288794225898447, 1791229192118862980
0.15285897254943848, 0.01772373914718628, -0.3143398929894231, 1791229192145845058
0.13539749383926392, -0.15519767999649048, -0.2889414011316983, 1791229192175830157
-0.25240111351013184, -0.013809442520141602, -0.29686051092725196, 1791229192205914673
0.007787108421325684, 0.11605185270309448, -0.30807404000586225, 1791229192236027126
-0.21453678607940674, -0.10660237073898315, -0.31804269147923603, 1791229192265009429
0.16117674112319946, -0.059104323387145996, -0.28048601557569103, 1791229192296059409
-0.1872120499610901, 0.09080368280410767, -0.2810200814712626, 1791229192326741362
-0.060305237770080566, -0.057785868644714355, -0.2647299145222131, 1791229192359330018
-0.050660550594329834, 0.19491809606552124, -0.32671029534428514, 1791229192386580074
0.25760263204574585, -0.11695832014083862, -0.32505045927918896, 1791229192416333976
0.03509533405303955, -0.16210061311721802, -0.3072455038481961, 1791229192446351298
-0.06416362524032593, 0.22737818956375122, -0.29175220961923787, 1791229192476385309
-0.24747180938720703, -0.15826749801635742, -0.28789557216893663, 1791229192506411740
0.03297138214111328, -0.12897926568984985, -0.29035247680331183, 1791229192536496872
-0.23441356420516968, 0.10096323490142822, -0.30999528786577896, 1791229192566013012
-0.12966591119766235, -0.06326991319656372, -0.2890942299022962, 1791229192598630506
0.26412928104400635, -0.03853505849838257, -0.30573517673269374, 1791229192628549900
0.004703044891357422, -0.07964116334915161, -0.3280486655060185, 1791229192656636801
-0.09283268451690674, -0.18284881114959717, -0.28846031652359383, 1791229192686663107
-0.1823338270187378, 0.25115829706192017, -0.27072155782791724, 1791229192716750663
0.04483109712600708, -0.0886070728302002, -0.30154330384425493, 1791229192746754750
-0.12975436449050903, -0.29071396589279175, -0.33642286592521725, 1791229192776832675
0.08237332105636597, 0.01642477512359619, -0.30655370735384035, 1791229192807315155
-0.18994784355163574, -0.03549224138259888, -0.2738812702354394, 1791229192839110703
-0.12189710140228271, -0.09236466884613037, -0.26384109098941166, 1791229192870405363
-0.00439143180847168, 0.1713026762008667, -0.32413828797301425, 1791229192897173242
0.004537761211395264, -0.011083126068115234, -0.31644467577153373, 1791229192927109461
0.057304978370666504, -0.1538282036781311, -0.29936166377936935, 1791229192957173333
0.38518697023391724, 0.0063214898109436035, -0.2832321091367805, 1791229192987209382
-0.2676142454147339, -0.09740608930587769, -0.2965890699317233, 1791229193017288002
0.06265556812286377, -0.07339072227478027, -0.27978531674983564, 1791229193047314632
-0.16677725315093994, 0.056558310985565186, -0.2823782887125869, 1791229193078640291
-0.24959373474121094, 0.011952579021453857, -0.30702581842522525, 1791229193110512969
-0.10638773441314697, -0.04356205463409424, -0.34276073366128246, 1791229193137540158
0.23908722400665283, -0.1905423402786255, -0.3052649456711032, 1791229193167457482
-0.10250967741012573, -0.13027894496917725, -0.28718844241178043, 1791229193197582537
-0.16679126024246216, 0.2710598111152649, -0.2780031928733718, 1791229193227623077
-0.03505450487136841, -0.1845787763595581, -0.2935656512355104, 1791229193257632507
-0.22409158945083618, -0.20794367790222168, -0.3221296010652787, 1791229193287828053
0.4439873695373535, 0.2545540928840637, -0.30774466856742466, 1791229193319132591
-0.1637910008430481, -0.21546542644500732, -0.2775750353484158, 1791229193350754534
-0.0015208721160888672, -0.10503840446472168, -0.29941058022000955, 1791229193376878867
-6.794929504394531e-06, 0.3157804608345032, -0.2637874561355255, 1791229193407876412
0.006913363933563232, -0.12471264600753784, -0.31826825423262173, 1791229193437960722
0.07601851224899292, -0.2767592668533325, -0.33345306364119764, 1791229193466990312
0.037802040576934814, 0.13781458139419556, -0.29880531531465415, 1791229193498070462
-0.07935607433319092, -0.041616737842559814, -0.28842707770918924, 1791229193528114129
0.2006658911705017, -0.022624969482421875, -0.28179548214279715, 1791229193558681862
-0.2753334641456604, -0.047796666622161865, -0.28017476398178087, 1791229193590519911
-0.12555211782455444, -0.07092773914337158, -0.33832388352575254, 1791229193618255616
0.07957565784454346, 0.14007717370986938, -0.3145388646807041, 1791229193648268715
-0.14071667194366455, -0.24764883518218994, -0.3017620306951622, 1791229193678351565
0.30733394622802734, -0.2094954252243042, -0.2711644256463045, 1791229193709117515
-0.15929478406906128, 0.24278026819229126, -0.2726127377733608, 1791229193739189773
-0.06623625755310059, -0.06598567962646484, -0.29377912100896475, 1791229193769198076
-0.28391551971435547, -0.19552582502365112, -0.31005367292458214, 1791229193799233088
0.06727546453475952, -0.0347212553024292, -0.293987579472877, 1791229193830952576
-0.12382060289382935, -0.1272265911102295, -0.29582339465775975, 1791229193860766526
0.12286239862442017, -0.08046573400497437, -0.28939713438854714, 1791229193889276491
-0.19428658485412598, -0.10377460718154907, -0.28911978458144516, 1791229193919208661
0.10657662153244019, -0.15306514501571655, -0.30153903926475434, 1791229193949205837
-0.18226921558380127, 0.3153858184814453, -0.30843261888258683, 1791229193979248077
0.12721949815750122, -0.41333144903182983, -0.30275522411060807, 1791229194009249660
0.03713953495025635, -0.2797926664352417, -0.28537349095517295, 1791229194039467335
0.47238659858703613, 0.33231455087661743, -0.27511282159691186, 1791229194070675326
-0.46266019344329834, -0.060284316539764404, -0.28708304874560747, 1791229194101750938
0.09352076053619385, -0.1889016032218933, -0.3050458310462107, 1791229194129270130
-0.12713658809661865, 0.19101166725158691, -0.2967990845296362, 1791229194159317080
0.11399447917938232, -0.12972098588943481, -0.3197147267461334, 1791229194189340089
-0.029846608638763428, -0.17408615350723267, -0.2909681412467888, 1791229194219438065
-0.03155010938644409, 0.12117093801498413, -0.2819799801529504, 1791229194249404555
-0.004204452037811279, -0.07546103000640869, -0.29822128134884823, 1791229194279724321
-0.03584474325180054, 0.0702674388885498, -0.29186059953464255, 1791229194310645003
0.05460387468338013, -0.1356552243232727, -0.2862957089647537, 1791229194342946210
-0.11331140995025635, -0.19763624668121338, -0.34616118574047716, 1791229194369872336
0.1309167742729187, 0.1017487645149231, -0.28159653363674253, 1791229194399558205
-0.05789583921432495, -0.015561103820800781, -0.2982478786635922, 1791229194429551252
-0.11381042003631592, -0.06781905889511108, -0.32253010556700135, 1791229194459642522
0.08470731973648071, 0.04116743803024292, -0.3265057705782161, 1791229194489661051
0.20306873321533203, -0.1676735281944275, -0.3076907163979275, 1791229194519725980
-0.29156988859176636, -0.08929413557052612, -0.26512768072675896, 1791229194550506571
0.17201417684555054, 0.17155981063842773, -0.2586301286552337, 1791229194582872328
-0.06596213579177856, -0.1884288787841797, -0.3304555916023672, 1791229194609941053
-0.07017427682876587, 0.06183582544326782, -0.3126528006073579, 1791229194638865856
-0.21805858612060547, 0.09216749668121338, -0.2797383059120585, 1791229194669914166
0.23836225271224976, -0.09885787963867188, -0.31189694353931285, 1791229194698996463
-0.021685659885406494, -0.08914190530776978, -0.2930122031740028, 1791229194729011927
-0.4287912845611572, -0.005603194236755371, -0.28342901506423673, 1791229194760128655
0.004025578498840332, -0.20698529481887817, -0.2836078234041384, 1791229194790961583
0.14718365669250488, 0.23385459184646606, -0.2926395525974534, 1791229194822624263
-0.09086889028549194, -0.15466874837875366, -0.3467884884481975, 1791229194850316778
-0.23756301403045654, -0.23237371444702148, -0.2927796562517101, 1791229194880329954
0.2392156720161438, 0.23066377639770508, -0.26739798280690313, 1791229194910374424
-0.20628315210342407, -0.061489999294281006, -0.28045761439867517, 1791229194940399784
0.08689022064208984, -0.16052937507629395, -0.28789979843187574, 1791229194970447972
-0.0775880217552185, 0.17841362953186035, -0.3188525861411794, 1791229195000521076
-0.01965200901031494, -0.07407015562057495, -0.3272856533706781, 1791229195030877106
-0.0012714266777038574, -0.238555908203125, -0.2680483959503519, 1791229195062860968
0.05368298292160034, 0.2886732816696167, -0.3006392354114628, 1791229195092624055
-0.18190616369247437, -0.14881736040115356, -0.3244796662809545, 1791229195120687306
0.14576613903045654, -0.14015734195709229, -0.28654418611801613, 1791229195150704791
-0.08124786615371704, 0.10098594427108765, -0.30452536270003394, 1791229195180766646
-0.029656171798706055, -0.16972780227661133, -0.2909477408050644, 1791229195210913054
0.5669546723365784, 0.09163463115692139, -0.2932117725738268, 1791229195239923499
-0.11501055955886841, -0.15952974557876587, -0.2837254994366292, 1791229195271122578
0.06951123476028442, -0.19444960355758667, -0.26950391579757144, 1791229195303048436
0.021334707736968994, 0.3295782804489136, -0.27715050989445994, 1791229195333524541
-0.20297491550445557, -0.12038695812225342, -0.33665474145708085, 1791229195361255664
-0.007407248020172119, -0.2838313579559326, -0.301732963043157, 1791229195391119058
0.2362021803855896, -0.030632495880126953, -0.2760774813639926, 1791229195421177910
-0.026941359043121338, -0.09348928928375244, -0.2920221685458657, 1791229195451216683
0.17799431085586548, -0.02545905113220215, -0.28853800127489965, 1791229195481296732
-0.24724549055099487, 0.06090420484542847, -0.2963380241997058, 1791229195511342579
0.14764338731765747, -0.17805862426757812, -0.29871470973881137, 1791229195542643469
-0.15627115964889526, 0.0597187876701355, -0.2801987259685111, 1791229195574629167
0.5110884308815002, -0.044908881187438965, -0.3220662796672933, 1791229195601466841
-0.2911592721939087, -0.15905368328094482, -0.2828122555518745, 1791229195631471091
-0.04756152629852295, 0.24665451049804688, -0.2815447228676704, 1791229195661535293
-0.21851730346679688, -0.15589964389801025, -0.30576079070830897, 1791229195691557874
0.1544041633605957, -0.09085667133331299, -0.3140596181842014, 1791229195721654362
0.09695398807525635, 0.14949309825897217, -0.28591475762425134, 1791229195751686411
0.028598368167877197, -0.11108869314193726, -0.27422682228670375, 1791229195782649997
0.10108554363250732, -0.3204273581504822, -0.2563289978857147, 1791229195815258528
-0.1674901247024536, 0.15416479110717773, -0.33056920074395696, 1791229195841972120
-0.18864679336547852, -0.03380805253982544, -0.3183143313221767, 1791229195871899612
0.06779247522354126, -0.061144471168518066, -0.3248792560287848, 1791229195900955908
0.06780195236206055, -0.101620614528656, -0.29174284812959533, 1791229195930991352
-0.09672433137893677, -0.11589348316192627, -0.267220568058695, 1791229195962324752
0.09600239992141724, 0.3196243643760681, -0.2792885566784192, 1791229195992115864
-0.1304008960723877, -0.14228105545043945, -0.29645680454858214, 1791229196022670240
0.28564250469207764, -0.29901397228240967, -0.2988347319825822, 1791229196054603440
-0.127050518989563, 0.16378706693649292, -0.33062772397607076, 1791229196082286223
0.14152324199676514, 0.022931277751922607, -0.30526931180663003, 1791229196112308403
-0.009231269359588623, -0.2132747769355774, -0.3003606291089012, 1791229196142322455
-0.14771854877471924, 0.28381580114364624, -0.29679770154575896, 1791229196172358782
-0.1781972050666809, -0.08753460645675659, -0.29332209595994146, 1791229196202510046
0.36415940523147583, -0.10909432172775269, -0.30799332400632246, 1791229196232442849
-0.04589235782623291, 0.12228173017501831, -0.3056422940967408, 1791229196263596242
-0.19694435596466064, -0.0942603349685669, -0.2891866162178612, 1791229196294700239
-0.05119180679321289, -0.15958720445632935, -0.3041581317782532, 1791229196322697907
0.24048244953155518, -0.005134522914886475, -0.306228958766315, 1791229196352739821
-0.15812146663665771, -0.054127633571624756, -0.31128241992605094, 1791229196382737312
-0.09500908851623535, 0.10366475582122803, -0.2989491996254317, 1791229196412787594
-0.002975165843963623, -0.16775763034820557, -0.31595343398591025, 1791229196442835716
-0.026648640632629395, -0.2712446451187134, -0.2852093231157149, 1791229196472886273
0.05272376537322998, 0.2692232131958008, -0.2680485953018638, 1791229196502969755
-0.14369040727615356, -0.06297075748443604, -0.2962232322278631, 1791229196533652154
-0.27548128366470337, -0.22219085693359375, -0.3071272124833557, 1791229196565120863
0.1316230297088623, 0.14581584930419922, -0.3346337914768289, 1791229196593089797
0.14525306224822998, -0.03338754177093506, -0.305671569360057, 1791229196623179777
0.058505475521087646, -0.12045639753341675, -0.27654491548861493, 1791229196653246514
-0.08832442760467529, 0.28286147117614746, -0.2847898061208361, 1791229196683262820
-0.23334914445877075, -0.024041831493377686, -0.30048673346966365, 1791229196713554189
-0.1904096007347107, 0.1971873641014099, -0.30408642975793826, 1791229196743373262
-0.03992348909378052, -0.15935170650482178, -0.2941890781851929, 1791229196775083032
-0.05626040697097778, -0.2260819673538208, -0.3012025306124512, 1791229196805509929
0.26764923334121704, 0.13274765014648438, -0.2854952350944426, 1791229196833539680
-0.07955396175384521, -0.05335712432861328, -0.2690233100484239, 1791229196864386361
-0.09623903036117554, -0.2091396450996399, -0.3042213588424861, 1791229196894236604
-0.05936664342880249, 0.2150241732597351, -0.3165845422539544, 1791229196924255414
0.2971309423446655, -0.3241429924964905, -0.3134414417087203, 1791229196954237445
-0.03002023696899414, -0.14851641654968262, -0.2997238199853693, 1791229196984299003
0.19673991203308105, 0.2620484232902527, -0.2824164725420152, 1791229197014664429
-0.4912760853767395, -0.04262644052505493, -0.27398081268951385, 1791229197047183477
0.30726271867752075, -0.343136727809906, -0.3152711315285704, 1791229197074321928
-0.15065652132034302, 0.18773901462554932, -0.3019868747376192, 1791229197104345187
0.5540018677711487, -0.007140696048736572, -0.31116860521255835, 1791229197134355802
-0.18368631601333618, -0.05934441089630127, -0.28907602572032637, 1791229197164388971
-0.21925783157348633, 0.04150646924972534, -0.28026799825609483, 1791229197194434884
-0.1537613868713379, -0.030200421810150146, -0.28730525081214525, 1791229197224379168
0.10295706987380981, 0.10652416944503784, -0.30264452297500666, 1791229197255190492
0.19575387239456177, -0.157992422580719, -0.2995082770947268, 1791229197287759124
0.22072768211364746, -0.08322256803512573, -0.33178675771936195, 1791229197314543391
0.22958683967590332, 0.12739121913909912, -0.2877799459870667, 1791229197344542333
-0.23013830184936523, -0.23766541481018066, -0.3020741808050358, 1791229197374611732
-0.09144389629364014, -0.1116340160369873, -0.29875869299219365, 1791229197404574910
-0.15702158212661743, 0.25534534454345703, -0.2940999663960168, 1791229197434848043
0.15618371963500977, -0.0778619647026062, -0.30180081394424313, 1791229197464524492
0.13557487726211548, -0.24951070547103882, -0.2733903562889629, 1791229197495094534
0.04619145393371582, 0.16615349054336548, -0.27507042340407545, 1791229197526950193
-0.06821107864379883, -0.09619385004043579, -0.31709709351410986, 1791229197554661890
0.23194539546966553, 0.04698723554611206, -0.30035137349916113, 1791229197584683608
